"Subj_idx","Stimulus","Response","Confidence","RT_decConf","Difficulty","Accuracy","Training","Trial_in_block"
1,0,1,14,3.61,24,0,FALSE,1
1,1,1,50,3.059,27,1,FALSE,2
1,0,0,20,3.329,27,1,FALSE,3
1,1,1,47,2.631,24,1,FALSE,4
1,1,1,48,3.107,21,1,FALSE,5
1,0,0,24,3.885,18,1,FALSE,6
1,1,1,22,4.017,15,1,FALSE,7
1,1,1,28,2.539,12,1,FALSE,8
1,0,0,24,8.224,9,1,FALSE,9
1,1,1,27,4.68,6,1,FALSE,10
1,0,1,29,4.064,3,0,FALSE,11
1,0,1,2,7.112,6,0,FALSE,12
1,1,1,27,3.732,9,1,FALSE,13
1,0,0,27,4.008,9,1,FALSE,14
1,1,1,27,3.11,6,1,FALSE,15
1,1,1,30,3.728,3,1,FALSE,16
1,1,1,30,4.317,1,1,FALSE,17
1,0,1,24,3.86,1,0,FALSE,18
1,1,0,15,8.635,4,0,FALSE,19
1,1,1,26,3.757,7,1,FALSE,20
1,1,1,25,2.487,7,1,FALSE,21
1,1,0,26,4.624,4,0,FALSE,22
1,1,0,32,4.207,7,0,FALSE,23
1,1,1,26,45.397,10,1,FALSE,24
1,0,0,26,3.746,10,1,FALSE,25
1,0,1,3,3.981,7,0,FALSE,26
1,0,1,27,2.893,10,0,FALSE,27
1,1,1,27,2.276,13,1,FALSE,28
1,0,0,25,4.735,13,1,FALSE,29
1,1,1,26,2.352,10,1,FALSE,30
1,1,1,38,3.059,7,1,FALSE,31
1,1,1,31,5.024,4,1,FALSE,32
1,1,1,9,3.346,1,1,FALSE,33
1,0,1,28,2.354,1,0,FALSE,34
1,1,1,30,2.168,4,1,FALSE,35
1,0,0,7,2.733,4,1,FALSE,36
1,0,1,23,3.423,1,0,FALSE,37
1,1,1,24,2.313,4,1,FALSE,38
1,0,0,19,3.527,4,1,FALSE,39
1,1,0,32,2.797,1,0,FALSE,40
1,1,1,22,2.066,4,1,FALSE,41
1,1,1,26,2.98,4,1,FALSE,42
1,0,1,30,2.175,1,0,FALSE,43
1,1,1,24,2.511,4,1,FALSE,44
1,0,1,24,2.429,4,0,FALSE,45
1,0,1,24,2.448,7,0,FALSE,46
1,0,0,21,2.852,10,1,FALSE,47
1,0,1,5,4.167,10,0,FALSE,48
1,1,1,24,2.241,13,1,FALSE,49
1,1,1,24,7.341,13,1,FALSE,50
1,1,1,33,3.415,10,1,FALSE,51
1,1,1,26,2.098,7,1,FALSE,52
1,0,1,25,2.496,4,0,FALSE,53
1,1,1,28,2.187,7,1,FALSE,54
1,1,1,23,2.087,7,1,FALSE,55
1,1,1,4,3.677,4,1,FALSE,56
1,1,1,25,1.986,1,1,FALSE,57
1,1,1,27,2.482,1,1,FALSE,58
1,1,0,20,2.534,1,0,FALSE,59
1,0,1,22,3.589,4,0,FALSE,60
1,1,1,22,2.206,7,1,FALSE,1
1,0,1,21,2.008,7,0,FALSE,2
1,0,0,20,3.534,10,1,FALSE,3
1,1,1,28,2.531,10,1,FALSE,4
1,0,0,27,3.153,7,1,FALSE,5
1,1,1,49,3.204,4,1,FALSE,6
1,0,1,28,1.751,1,0,FALSE,7
1,0,1,24,1.728,4,0,FALSE,8
1,1,1,27,1.702,7,1,FALSE,9
1,0,1,25,1.986,7,0,FALSE,10
1,0,0,28,2.075,10,1,FALSE,11
1,1,1,28,1.897,10,1,FALSE,12
1,0,1,24,1.958,7,0,FALSE,13
1,0,1,26,2.026,10,0,FALSE,14
1,0,0,29,2.018,13,1,FALSE,15
1,1,1,24,1.724,13,1,FALSE,16
1,1,1,21,2.278,10,1,FALSE,17
1,0,0,28,2.312,7,1,FALSE,18
1,1,1,28,2.568,4,1,FALSE,19
1,0,0,33,1.659,1,1,FALSE,20
1,1,1,23,1.838,1,1,FALSE,21
1,0,0,23,2.781,1,1,FALSE,22
1,1,1,21,2.027,1,1,FALSE,23
1,0,1,28,1.813,1,0,FALSE,24
1,1,1,25,1.849,4,1,FALSE,25
1,0,0,31,2.263,4,1,FALSE,26
1,0,1,10,2.753,1,0,FALSE,27
1,0,1,22,1.884,4,0,FALSE,28
1,1,1,23,1.917,7,1,FALSE,29
1,0,0,23,2.096,7,1,FALSE,30
1,1,1,23,1.722,4,1,FALSE,31
1,1,1,24,2.042,1,1,FALSE,32
1,0,1,31,2.755,1,0,FALSE,33
1,1,1,25,2.184,4,1,FALSE,34
1,1,1,21,1.957,4,1,FALSE,35
1,1,0,24,1.716,1,0,FALSE,36
1,0,0,11,3.774,4,1,FALSE,37
1,1,1,24,1.916,4,1,FALSE,38
1,0,1,22,1.783,1,0,FALSE,39
1,1,0,24,1.938,4,0,FALSE,40
1,0,0,27,1.876,7,1,FALSE,41
1,1,0,29,2.319,7,0,FALSE,42
1,0,0,26,1.993,10,1,FALSE,43
1,0,1,24,1.781,10,0,FALSE,44
1,1,1,36,3.629,13,1,FALSE,45
1,0,0,39,2.222,13,1,FALSE,46
1,0,0,26,2.931,10,1,FALSE,47
1,0,0,23,3.497,7,1,FALSE,48
1,0,0,26,3.313,4,1,FALSE,49
1,0,0,15,3.655,1,1,FALSE,50
1,1,1,18,2.08,1,1,FALSE,51
1,0,0,20,2.624,1,1,FALSE,52
1,1,1,9,2.649,1,1,FALSE,53
1,0,0,24,2.622,1,1,FALSE,54
1,0,1,8,2.718,1,0,FALSE,55
1,1,1,24,2.246,4,1,FALSE,56
1,1,1,26,1.922,4,1,FALSE,57
1,1,0,26,2.133,1,0,FALSE,58
1,1,1,12,2.486,4,1,FALSE,59
1,0,0,28,1.764,4,1,FALSE,60
1,1,1,9,2.027,1,1,FALSE,1
1,1,1,21,2.372,1,1,FALSE,2
1,0,1,16,2.707,1,0,FALSE,3
1,0,0,12,2.292,4,1,FALSE,4
1,0,1,18,2.641,4,0,FALSE,5
1,0,0,24,1.803,7,1,FALSE,6
1,1,0,15,2.269,7,0,FALSE,7
1,0,0,25,1.972,10,1,FALSE,8
1,1,1,26,2.231,10,1,FALSE,9
1,0,1,22,2.389,7,0,FALSE,10
1,0,0,28,1.874,10,1,FALSE,11
1,1,1,26,1.972,10,1,FALSE,12
1,0,1,22,2.094,7,0,FALSE,13
1,1,1,20,2.51,10,1,FALSE,14
1,0,0,24,2.01,10,1,FALSE,15
1,0,1,15,2.029,7,0,FALSE,16
1,1,1,27,1.87,10,1,FALSE,17
1,1,1,17,2.198,10,1,FALSE,18
1,1,1,23,1.973,7,1,FALSE,19
1,0,1,11,2.4,4,0,FALSE,20
1,1,0,23,2.199,7,0,FALSE,21
1,0,0,33,2.096,10,1,FALSE,22
1,0,0,14,2.231,10,1,FALSE,23
1,1,1,8,2.915,7,1,FALSE,24
1,0,0,27,2.792,4,1,FALSE,25
1,0,0,28,2.474,1,1,FALSE,26
1,1,1,12,1.831,1,1,FALSE,27
1,1,0,9,2.372,1,0,FALSE,28
1,0,1,7,2.293,4,0,FALSE,29
1,0,1,15,2.171,7,0,FALSE,30
1,0,1,5,2.402,10,0,FALSE,31
1,0,0,13,1.961,13,1,FALSE,32
1,0,0,13,2.195,13,1,FALSE,33
1,1,1,16,1.93,10,1,FALSE,34
1,1,1,11,4.189,7,1,FALSE,35
1,0,1,8,2.067,4,0,FALSE,36
1,1,1,24,2.194,7,1,FALSE,37
1,0,1,6,1.977,7,0,FALSE,38
1,1,1,10,3.017,10,1,FALSE,39
1,1,1,20,2.653,10,1,FALSE,40
1,0,0,22,2.001,7,1,FALSE,41
1,1,1,26,2.512,4,1,FALSE,42
1,0,0,31,2.73,1,1,FALSE,43
1,1,0,14,2.244,1,0,FALSE,44
1,1,1,9,1.936,4,1,FALSE,45
1,1,1,26,2.866,4,1,FALSE,46
1,1,1,10,1.754,1,1,FALSE,47
1,1,0,25,2.63,1,0,FALSE,48
1,0,1,10,1.612,4,0,FALSE,49
1,1,1,10,2.248,7,1,FALSE,50
1,0,0,13,1.843,7,1,FALSE,51
1,1,1,7,1.713,4,1,FALSE,52
1,1,0,26,1.82,1,0,FALSE,53
1,0,0,24,2.43,4,1,FALSE,54
1,0,1,13,2.112,4,0,FALSE,55
1,1,0,12,2.199,7,0,FALSE,56
1,0,0,18,2.407,10,1,FALSE,57
1,0,0,24,1.806,10,1,FALSE,58
1,0,0,7,2.635,7,1,FALSE,59
1,0,0,12,1.891,4,1,FALSE,60
1,0,0,7,2.076,1,1,FALSE,1
1,0,1,17,2.71,1,0,FALSE,2
1,1,0,27,2.025,4,0,FALSE,3
1,0,0,32,2.427,7,1,FALSE,4
1,1,1,28,2.535,7,1,FALSE,5
1,1,0,25,4.486,4,0,FALSE,6
1,0,1,9,2.217,7,0,FALSE,7
1,1,1,39,4.318,10,1,FALSE,8
1,0,0,27,1.892,10,1,FALSE,9
1,0,0,26,2.184,7,1,FALSE,10
1,0,0,28,1.968,4,1,FALSE,11
1,0,0,26,2.382,1,1,FALSE,12
1,0,0,24,2.012,1,1,FALSE,13
1,1,1,11,2.334,1,1,FALSE,14
1,1,0,19,2.523,1,0,FALSE,15
1,1,0,18,2.398,4,0,FALSE,16
1,1,1,24,1.827,7,1,FALSE,17
1,1,1,27,2.093,7,1,FALSE,18
1,1,1,44,2.881,4,1,FALSE,19
1,1,0,17,1.83,1,0,FALSE,20
1,1,0,19,1.853,4,0,FALSE,21
1,0,0,12,2.026,7,1,FALSE,22
1,1,0,16,1.932,7,0,FALSE,23
1,0,0,19,2.465,10,1,FALSE,24
1,0,1,25,2.527,10,0,FALSE,25
1,1,1,30,2.053,13,1,FALSE,26
1,0,0,26,2.593,13,1,FALSE,27
1,0,0,18,1.959,10,1,FALSE,28
1,0,0,24,2.485,7,1,FALSE,29
1,0,0,27,2.009,4,1,FALSE,30
1,1,1,9,2.635,1,1,FALSE,31
1,1,0,11,2.144,1,0,FALSE,32
1,1,0,18,1.851,4,0,FALSE,33
1,0,1,9,2.111,7,0,FALSE,34
1,1,1,26,2.158,10,1,FALSE,35
1,0,0,25,1.925,10,1,FALSE,36
1,0,1,8,2.666,7,0,FALSE,37
1,0,0,20,2.208,10,1,FALSE,38
1,1,1,20,2.072,10,1,FALSE,39
1,0,0,29,1.793,7,1,FALSE,40
1,0,1,6,2.122,4,0,FALSE,41
1,1,1,29,2.29,7,1,FALSE,42
1,1,1,38,2.564,7,1,FALSE,43
1,1,0,7,2.145,4,0,FALSE,44
1,0,0,21,1.916,7,1,FALSE,45
1,1,1,18,1.949,7,1,FALSE,46
1,1,1,31,1.747,4,1,FALSE,47
1,1,1,36,2.146,1,1,FALSE,48
1,1,0,12,1.941,1,0,FALSE,49
1,1,0,15,1.977,4,0,FALSE,50
1,1,0,6,2.205,7,0,FALSE,51
1,1,1,28,1.781,10,1,FALSE,52
1,0,1,5,2.585,10,0,FALSE,53
1,1,1,47,2.31,13,1,FALSE,54
1,0,0,8,1.971,13,1,FALSE,55
1,0,0,22,1.949,10,1,FALSE,56
1,0,0,10,1.699,7,1,FALSE,57
1,1,0,23,2.289,4,0,FALSE,58
1,0,0,16,2.39,7,1,FALSE,59
1,1,1,30,1.819,7,1,FALSE,60
2,0,0,50,1.89779999992,15,1,FALSE,1
2,1,0,50,2.12910000002,12,0,FALSE,2
2,0,0,50,1.71420000004,15,1,FALSE,3
2,0,0,50,1.58470000000999,18,1,FALSE,4
2,0,1,50,1.89809999988001,12,0,FALSE,5
2,1,1,50,1.61030000006,15,1,FALSE,6
2,0,0,50,1.87390000001001,15,1,FALSE,7
2,1,1,50,2.16210000008001,18,1,FALSE,8
2,1,1,50,1.68120000000001,18,1,FALSE,9
2,0,0,50,1.84239999996999,18,1,FALSE,10
2,1,1,49,2.03260000004002,15,1,FALSE,11
2,0,0,50,1.64880000007999,12,1,FALSE,12
2,1,0,50,1.96120000002001,6,0,FALSE,13
2,0,1,50,1.65650000003999,9,0,FALSE,14
2,0,0,50,2.35400000005,9,1,FALSE,15
2,0,0,50,3.34520000009,6,1,FALSE,16
2,0,1,50,1.69780000019999,1,0,FALSE,17
2,0,1,50,1.75199999986001,4,0,FALSE,18
2,1,1,48,5.53029999998998,7,1,FALSE,19
2,1,1,43,2.73640000005002,7,1,FALSE,20
2,1,1,38,2.03270000010001,4,1,FALSE,21
2,1,1,37,1.72189999999997,1,1,FALSE,22
2,0,1,50,1.64910000003997,1,0,FALSE,23
2,1,1,50,2.76219999999,4,1,FALSE,24
2,0,0,50,2.21770000014995,10,1,FALSE,25
2,1,1,50,2.67289999989001,10,1,FALSE,26
2,1,1,50,1.59429999999999,7,1,FALSE,27
2,1,1,50,1.51439999998,4,1,FALSE,28
2,1,1,50,1.44849999994005,1,1,FALSE,29
2,1,1,48,1.67369999992999,1,1,FALSE,30
2,1,1,50,1.98499999987002,1,1,FALSE,31
2,0,1,49,1.83410000010004,1,0,FALSE,32
2,0,1,50,1.87419999995996,4,0,FALSE,33
2,1,1,50,1.97649999988003,7,1,FALSE,34
2,1,1,48,1.52850000002002,7,1,FALSE,35
2,1,1,43,1.63370000013005,4,1,FALSE,36
2,0,1,50,1.44200000003999,1,0,FALSE,37
2,1,1,50,1.61020000000001,4,1,FALSE,38
2,1,1,50,1.56900000013999,1,1,FALSE,1
2,1,1,50,1.53619999996998,1,1,FALSE,2
2,0,1,50,1.58340000012005,1,0,FALSE,3
2,0,1,50,2.16949999985,4,0,FALSE,4
2,0,0,50,1.87420000020001,10,1,FALSE,5
2,1,1,50,1.87430000002007,7,1,FALSE,6
2,1,1,50,1.49830000009993,7,1,FALSE,7
2,0,1,50,1.65009999996994,7,0,FALSE,8
2,1,1,50,1.93720000004,10,1,FALSE,9
2,0,0,41,2.72160000004002,7,1,FALSE,10
2,0,0,49,1.84880000002997,4,1,FALSE,11
2,1,1,41,2.49710000004002,1,1,FALSE,12
2,1,1,48,1.65830000000994,1,1,FALSE,13
2,1,1,47,1.68950000008999,4,1,FALSE,14
2,0,0,46,1.60070000006002,4,1,FALSE,15
2,1,0,43,1.69790000002994,1,0,FALSE,16
2,0,0,45,2.07309999993001,4,1,FALSE,17
2,1,0,14,3.05740000004997,1,0,FALSE,18
2,0,0,30,1.40159999999008,4,1,FALSE,19
2,1,1,36,1.94580000010005,4,1,FALSE,20
2,0,0,44,1.71389999985998,1,1,FALSE,21
2,0,1,42,1.86520000010997,1,0,FALSE,22
2,1,0,42,2.41029999987001,4,0,FALSE,23
2,0,0,46,1.92159999999998,7,1,FALSE,24
2,0,0,44,1.77669999982009,7,1,FALSE,25
2,1,0,46,2.14489999995008,4,0,FALSE,26
2,1,1,42,1.51410000003001,7,1,FALSE,27
2,1,1,44,2.05719999991998,7,1,FALSE,28
2,1,1,41,1.91440000012005,4,1,FALSE,29
2,0,1,45,1.42540000005998,1,0,FALSE,30
2,1,0,42,1.90580000006,4,0,FALSE,31
2,1,0,47,2.32899999991001,7,0,FALSE,32
2,1,1,45,2.06590000004007,10,1,FALSE,33
2,1,0,43,2.13020000002009,10,0,FALSE,34
2,0,1,50,1.84859999990999,13,0,FALSE,35
2,0,0,50,1.86589999985998,16,1,FALSE,36
2,0,0,50,1.49020000011998,19,1,FALSE,37
2,0,1,48,2.06630000006,19,0,FALSE,38
2,1,1,50,1.57759999995993,22,1,FALSE,39
2,0,0,50,1.78569999989006,22,1,FALSE,40
2,0,0,50,1.73029999992996,22,1,FALSE,41
2,0,0,50,1.45809999994002,10,1,FALSE,1
2,1,1,49,1.42650000005006,7,1,FALSE,2
2,1,1,50,1.68170000008005,1,1,FALSE,3
2,0,1,50,1.65830000000994,7,0,FALSE,4
2,1,1,50,1.52080000006,13,1,FALSE,5
2,0,1,50,1.68200000003004,10,0,FALSE,6
2,0,1,12,3.32230000011995,10,0,FALSE,7
2,0,1,45,1.88839999982005,13,0,FALSE,8
2,0,0,45,2.00169999990007,16,1,FALSE,9
2,1,1,50,1.88089999999001,16,1,FALSE,10
2,0,1,50,1.92210000007995,13,0,FALSE,11
2,0,1,46,1.48130000010005,16,0,FALSE,12
2,0,0,44,1.48029999993998,19,1,FALSE,13
2,0,0,48,2.4015000001,19,1,FALSE,14
2,1,1,50,1.33789999990002,13,1,FALSE,15
2,1,1,50,1.81019999999995,13,1,FALSE,16
2,0,1,50,1.55230000009993,13,0,FALSE,17
2,1,1,50,1.52160000009998,16,1,FALSE,18
2,1,1,50,1.70620000010007,7,1,FALSE,19
2,0,0,50,3.08170000000019,1,1,FALSE,20
2,0,0,50,1.65780000000005,1,1,FALSE,21
2,0,1,50,1.6105000002,1,0,FALSE,22
2,0,0,50,4.61830000000005,4,1,FALSE,23
2,0,0,50,2.59359999999986,4,1,FALSE,24
2,0,0,50,2.76989999999991,1,1,FALSE,25
2,0,1,50,2.32869999999995,1,0,FALSE,26
2,1,0,50,2.12089999999991,4,0,FALSE,27
2,0,0,50,1.64109999990021,7,1,FALSE,1
2,1,0,50,1.76839999999991,10,0,FALSE,2
2,1,1,49,1.73739999999991,1,1,FALSE,3
2,0,0,50,1.81019999989984,4,1,FALSE,4
2,1,1,50,1.8494999998,4,1,FALSE,5
2,1,1,50,1.94559999999986,1,1,FALSE,6
2,0,1,50,1.86620000010007,4,0,FALSE,7
2,0,0,45,2.03429999999981,7,1,FALSE,8
2,1,1,50,1.61749999989988,7,1,FALSE,9
2,0,0,43,1.66550000009988,4,1,FALSE,10
2,1,1,43,1.49769999999995,1,1,FALSE,11
2,0,0,50,1.76989999990002,1,1,FALSE,12
2,0,0,43,1.49,1,1,FALSE,13
2,0,0,47,2.05030000000005,1,1,FALSE,14
2,1,1,35,1.55440000010002,1,1,FALSE,15
2,0,0,33,1.44950000010012,1,1,FALSE,16
2,1,1,38,1.35279999989993,1,1,FALSE,17
2,1,1,38,1.94480000000005,1,1,FALSE,18
2,1,1,35,1.506,1,1,FALSE,19
2,1,1,42,1.35410000009998,1,1,FALSE,20
2,0,1,37,1.23329999990016,1,0,FALSE,21
2,0,1,50,2.24959999999986,4,0,FALSE,22
2,0,1,41,1.78569999990007,7,0,FALSE,23
2,1,1,50,1.94589999999991,10,1,FALSE,24
2,0,0,42,1.43389999990002,10,1,FALSE,25
2,1,0,46,1.70589999999991,1,0,FALSE,26
2,1,0,45,1.79219999979995,4,0,FALSE,27
2,0,1,45,1.32119999990007,7,0,FALSE,28
2,0,1,47,1.64039999990002,10,0,FALSE,29
2,0,0,50,1.88869999999995,13,1,FALSE,30
2,0,0,48,1.93380000000005,13,1,FALSE,31
2,1,1,48,1.50580000020005,10,1,FALSE,32
2,1,1,50,1.42629999990016,7,1,FALSE,33
2,1,1,48,1.73039999999991,4,1,FALSE,34
2,0,0,45,1.73759999989998,1,1,FALSE,35
2,0,0,49,1.75359999999986,1,1,FALSE,36
2,1,0,47,1.65790000000014,1,0,FALSE,37
2,1,1,5,2.47909999989998,4,1,FALSE,38
2,0,0,43,1.68200000009988,4,1,FALSE,39
2,1,0,42,1.80480000000005,1,0,FALSE,40
2,1,1,42,2.14459999999986,4,1,FALSE,41
2,1,1,50,1.67369999990007,4,1,FALSE,42
3,1,0,26,3.341,18,0,FALSE,1
3,1,1,23,3.552,21,1,FALSE,2
3,1,1,23,2.839,21,1,FALSE,3
3,0,0,26,3.91,18,1,FALSE,4
3,1,0,26,3.01,15,0,FALSE,5
3,1,1,17,3.815,18,1,FALSE,6
3,1,0,25,3.557,18,0,FALSE,7
3,1,1,25,3.97,21,1,FALSE,8
3,1,1,23,2.722,21,1,FALSE,9
3,1,1,24,2.918,18,1,FALSE,10
3,0,0,27,2.575,15,1,FALSE,11
3,0,0,19,2.871,12,1,FALSE,12
3,1,1,24,3.597,9,1,FALSE,13
3,1,0,27,2.59,6,0,FALSE,14
3,1,0,21,2.688,9,0,FALSE,15
3,0,0,24,2.254,12,1,FALSE,16
3,1,0,25,2.745,12,0,FALSE,17
3,0,0,25,2.245,15,1,FALSE,18
3,1,1,20,2.275,15,1,FALSE,19
3,1,0,26,2.886,12,0,FALSE,20
3,1,1,22,2.317,15,1,FALSE,21
3,0,0,25,2.254,15,1,FALSE,22
3,0,0,26,2.371,12,1,FALSE,23
3,0,0,26,2.463,9,1,FALSE,24
3,1,0,26,5.275,6,0,FALSE,25
3,0,0,25,3.113,9,1,FALSE,26
3,0,1,23,2.356,9,0,FALSE,27
3,1,1,23,3.057,12,1,FALSE,28
3,0,1,22,5.519,12,0,FALSE,29
3,0,1,20,3.237,15,0,FALSE,30
3,0,0,23,2.597,18,1,FALSE,31
3,1,0,24,2.95,18,0,FALSE,32
3,1,1,24,2.471,21,1,FALSE,33
3,1,1,24,2.502,21,1,FALSE,34
3,1,1,25,2.331,18,1,FALSE,35
3,0,1,16,3.269,15,0,FALSE,36
3,1,0,22,2.723,18,0,FALSE,37
3,0,0,21,2.528,21,1,FALSE,38
3,0,0,26,2.348,21,1,FALSE,39
3,0,0,27,2.191,18,1,FALSE,40
3,0,0,25,2.278,15,1,FALSE,41
3,1,1,21,2.669,12,1,FALSE,42
3,0,1,20,2.213,9,0,FALSE,43
3,0,0,24,2.448,12,1,FALSE,44
3,1,1,20,2.802,12,1,FALSE,45
3,0,0,21,2.948,9,1,FALSE,46
3,1,1,11,5.156,6,1,FALSE,47
3,1,1,14,4.549,3,1,FALSE,48
3,1,0,18,2.592,1,0,FALSE,49
3,1,0,18,2.826,4,0,FALSE,50
3,1,1,18,2.098,7,1,FALSE,51
3,0,0,17,2.533,7,1,FALSE,52
3,0,1,17,2.769,4,0,FALSE,53
3,0,0,20,2.863,7,1,FALSE,54
3,0,0,18,2.494,7,1,FALSE,55
3,0,0,18,2.076,4,1,FALSE,56
3,0,0,18,2.434,1,1,FALSE,57
3,1,0,17,2.474,1,0,FALSE,58
3,0,0,16,2.013,4,1,FALSE,59
3,1,1,16,2.15,4,1,FALSE,60
3,0,1,17,2.915,1,0,FALSE,1
3,1,0,13,4.339,4,0,FALSE,2
3,1,1,17,2.153,7,1,FALSE,3
3,0,0,22,2.388,7,1,FALSE,4
3,1,1,18,2.308,4,1,FALSE,5
3,1,0,17,2.815,1,0,FALSE,6
3,1,1,19,2.683,4,1,FALSE,7
3,1,0,20,2.355,4,0,FALSE,8
3,1,1,17,2.721,7,1,FALSE,9
3,1,0,20,4.294,7,0,FALSE,10
3,0,0,19,2.401,10,1,FALSE,11
3,1,1,19,2.221,10,1,FALSE,12
3,0,0,20,2.363,7,1,FALSE,13
3,0,1,21,2.707,4,0,FALSE,14
3,1,0,22,1.904,7,0,FALSE,15
3,0,1,18,3.635,10,0,FALSE,16
3,1,1,18,2.487,13,1,FALSE,17
3,1,0,17,2.441,13,0,FALSE,18
3,0,0,19,2.557,16,1,FALSE,19
3,1,0,16,3.823,16,0,FALSE,20
3,0,0,18,2.089,19,1,FALSE,21
3,0,0,18,2.028,19,1,FALSE,22
3,0,0,20,2.636,16,1,FALSE,23
3,0,0,18,2.019,13,1,FALSE,24
3,0,0,19,2.262,10,1,FALSE,25
3,1,1,17,2.613,7,1,FALSE,26
3,1,0,16,2.348,4,0,FALSE,27
3,1,1,16,2.474,7,1,FALSE,28
3,0,0,20,2.799,7,1,FALSE,29
3,1,1,17,1.97,4,1,FALSE,30
3,1,0,17,4.379,1,0,FALSE,31
3,0,1,15,2.511,4,0,FALSE,32
3,0,1,14,2.248,7,0,FALSE,33
3,0,0,18,2.432,10,1,FALSE,34
3,1,1,9,3.363,10,1,FALSE,35
3,1,1,13,2.791,7,1,FALSE,36
3,0,1,8,3.011,4,0,FALSE,37
3,0,0,17,2.303,7,1,FALSE,38
3,1,0,17,2.153,7,0,FALSE,39
3,1,1,14,1.95,10,1,FALSE,40
3,0,0,12,2.097,10,1,FALSE,41
3,0,0,14,2.187,7,1,FALSE,42
3,0,1,12,1.997,4,0,FALSE,43
3,0,0,10,2.729,7,1,FALSE,44
3,1,1,10,2.098,7,1,FALSE,45
3,1,1,10,2.622,4,1,FALSE,46
3,1,1,11,3.089,1,1,FALSE,47
3,1,1,10,2.321,1,1,FALSE,48
3,0,0,13,2.419,1,1,FALSE,49
3,0,1,10,2.167,1,0,FALSE,50
3,1,1,11,1.947,4,1,FALSE,51
3,1,1,10,1.92,4,1,FALSE,52
3,1,0,10,2.042,1,0,FALSE,53
3,1,0,12,2.207,4,0,FALSE,54
3,1,1,8,2.769,7,1,FALSE,55
3,0,0,8,2.495,7,1,FALSE,56
3,0,1,8,2.496,4,0,FALSE,57
3,0,1,7,2.378,7,0,FALSE,58
3,1,0,9,2.69,10,0,FALSE,59
3,0,0,8,3.528,13,1,FALSE,60
3,0,1,17,3.985,13,0,FALSE,1
3,0,0,20,2.802,16,1,FALSE,2
3,1,1,11,2.058,16,1,FALSE,3
3,0,0,12,2.24,13,1,FALSE,4
3,0,0,12,2.245,10,1,FALSE,5
3,0,1,8,2.394,7,0,FALSE,6
3,1,0,11,2.629,10,0,FALSE,7
3,0,1,9,2.817,13,0,FALSE,8
3,1,0,10,2.302,16,0,FALSE,9
3,0,0,11,1.958,19,1,FALSE,10
3,0,0,11,2.113,19,1,FALSE,11
3,1,1,10,2.245,16,1,FALSE,12
3,0,0,14,2.121,13,1,FALSE,13
3,0,0,11,2.306,10,1,FALSE,14
3,0,0,12,2.448,7,1,FALSE,15
3,1,0,13,2.208,4,0,FALSE,16
3,1,0,13,2.137,7,0,FALSE,17
3,1,0,12,2.723,10,0,FALSE,18
3,0,0,14,2.145,13,1,FALSE,19
3,1,1,7,2.331,13,1,FALSE,20
3,1,0,14,2.238,10,0,FALSE,21
3,1,0,13,2.378,13,0,FALSE,22
3,1,1,14,2.167,16,1,FALSE,23
3,0,0,15,2.293,16,1,FALSE,24
3,0,0,15,2.229,13,1,FALSE,25
3,0,1,11,2.425,10,0,FALSE,26
3,0,0,16,2.261,13,1,FALSE,27
3,1,0,10,2.95,13,0,FALSE,28
3,1,1,13,2.135,16,1,FALSE,29
3,0,0,13,2.191,16,1,FALSE,30
3,1,1,8,2.565,13,1,FALSE,31
3,0,0,10,2.035,10,1,FALSE,32
3,0,0,12,3.019,7,1,FALSE,33
3,1,0,10,2.111,4,0,FALSE,34
3,0,0,19,2.455,7,1,FALSE,35
3,1,0,15,2.817,7,0,FALSE,36
3,0,1,9,2.495,10,0,FALSE,37
3,1,1,10,2.488,13,1,FALSE,38
3,0,0,13,2.731,13,1,FALSE,39
3,0,0,14,2.285,10,1,FALSE,40
3,0,1,9,2.889,7,0,FALSE,41
3,1,0,14,2.621,10,0,FALSE,42
3,1,0,7,3.113,13,0,FALSE,43
3,0,0,12,2.152,16,1,FALSE,44
3,1,1,7,2.011,16,1,FALSE,45
3,0,0,10,2.02,13,1,FALSE,46
3,0,1,7,2.2,10,0,FALSE,47
3,1,1,7,2.176,13,1,FALSE,48
3,0,0,11,2.331,13,1,FALSE,49
3,0,0,10,1.955,10,1,FALSE,50
3,1,1,8,2.043,7,1,FALSE,51
3,1,1,9,2.106,4,1,FALSE,52
3,1,0,10,2.325,1,0,FALSE,53
3,1,1,11,3.598,4,1,FALSE,54
3,1,1,12,2.371,4,1,FALSE,55
3,1,1,11,2.369,1,1,FALSE,56
3,0,0,17,2.439,1,1,FALSE,57
3,0,0,12,2.863,1,1,FALSE,58
3,1,0,13,2.332,1,0,FALSE,59
3,0,0,14,2.271,4,1,FALSE,60
3,1,0,16,2.571,4,0,FALSE,1
3,0,0,17,2.408,7,1,FALSE,2
3,0,0,18,2.277,7,1,FALSE,3
3,1,0,18,2.355,4,0,FALSE,4
3,1,0,15,3.208,7,0,FALSE,5
3,1,1,9,2.785,10,1,FALSE,6
3,0,0,21,2.471,10,1,FALSE,7
3,1,1,12,2.167,7,1,FALSE,8
3,0,0,12,2.558,4,1,FALSE,9
3,0,0,20,2.192,1,1,FALSE,10
3,1,0,24,2.331,1,0,FALSE,11
3,1,0,23,2.126,4,0,FALSE,12
3,1,1,18,2.314,7,1,FALSE,13
3,0,0,20,2.324,7,1,FALSE,14
3,1,0,19,1.979,4,0,FALSE,15
3,0,0,21,1.879,7,1,FALSE,16
3,0,1,11,1.896,7,0,FALSE,17
3,1,0,16,2.697,10,0,FALSE,18
3,0,0,19,2.309,13,1,FALSE,19
3,0,0,16,3.145,13,1,FALSE,20
3,1,1,15,2.175,10,1,FALSE,21
3,1,1,12,2.223,7,1,FALSE,22
3,0,0,16,2.076,4,1,FALSE,23
3,1,1,12,2.472,1,1,FALSE,24
3,1,1,15,1.878,1,1,FALSE,25
3,0,0,12,2.884,1,1,FALSE,26
3,0,1,13,2.119,1,0,FALSE,27
3,1,1,12,2.568,4,1,FALSE,28
3,0,0,11,1.864,4,1,FALSE,29
3,1,1,12,2.658,1,1,FALSE,30
3,0,0,15,2.683,1,1,FALSE,31
3,1,1,11,2.073,1,1,FALSE,32
3,0,0,13,2.245,1,1,FALSE,33
3,1,0,10,3.261,1,0,FALSE,34
3,0,1,8,2.197,4,0,FALSE,35
3,1,1,9,2.22,7,1,FALSE,36
3,1,1,9,2.559,7,1,FALSE,37
3,1,1,9,2.105,4,1,FALSE,38
3,1,0,10,2.823,1,0,FALSE,39
3,0,0,9,2.675,4,1,FALSE,40
3,1,1,10,2.254,4,1,FALSE,41
3,0,1,11,2.035,1,0,FALSE,42
3,1,1,13,2.277,4,1,FALSE,43
3,0,0,10,2.191,4,1,FALSE,44
3,0,1,11,2.151,1,0,FALSE,45
3,1,1,14,1.87,4,1,FALSE,46
3,0,0,13,1.864,4,1,FALSE,47
3,1,0,15,2.105,1,0,FALSE,48
3,1,0,11,3.049,4,0,FALSE,49
3,0,0,15,2.135,7,1,FALSE,50
3,0,0,13,2.145,7,1,FALSE,51
3,1,0,12,2.089,4,0,FALSE,52
3,1,1,11,2.364,7,1,FALSE,53
3,1,1,10,2.333,7,1,FALSE,54
3,0,0,12,1.971,4,1,FALSE,55
3,0,1,9,2.411,1,0,FALSE,56
3,0,0,12,2.011,4,1,FALSE,57
3,1,0,9,2.205,4,0,FALSE,58
3,0,0,12,2.082,7,1,FALSE,59
3,1,1,8,1.998,7,1,FALSE,60
4,0,1,41,2.388,27,0,FALSE,1
4,0,0,38,2.913,30,1,FALSE,2
4,0,1,35,2.199,30,0,FALSE,3
4,1,1,43,2.284,33,1,FALSE,4
4,1,1,39,2.435,33,1,FALSE,5
4,1,1,41,2.026,30,1,FALSE,6
4,0,0,32,2.573,27,1,FALSE,7
4,1,1,35,2.606,24,1,FALSE,8
4,0,0,33,3.399,21,1,FALSE,9
4,1,1,35,2.067,18,1,FALSE,10
4,0,1,33,2.726,15,0,FALSE,11
4,1,1,36,2.492,18,1,FALSE,12
4,0,0,29,2.013,18,1,FALSE,13
4,0,1,38,3.097,15,0,FALSE,14
4,0,0,34,2.475,18,1,FALSE,15
4,0,1,33,13.533,18,0,FALSE,16
4,0,0,29,2.029,21,1,FALSE,17
4,0,1,30,2.674,21,0,FALSE,18
4,1,1,35,2.492,24,1,FALSE,19
4,1,1,2,4.48,24,1,FALSE,20
4,1,0,36,3.205,21,0,FALSE,21
4,0,1,37,2.765,24,0,FALSE,22
4,1,0,34,3.055,27,0,FALSE,23
4,0,0,36,3.757,30,1,FALSE,24
4,1,1,38,2.98,30,1,FALSE,25
4,1,1,34,2.513,27,1,FALSE,26
4,0,0,34,2.401,24,1,FALSE,27
4,0,1,30,3.124,21,0,FALSE,28
4,1,1,37,4.497,24,1,FALSE,29
4,1,0,34,2.473,24,0,FALSE,30
4,0,1,32,2.31,27,0,FALSE,31
4,0,0,34,2.631,30,1,FALSE,32
4,1,1,34,2.887,30,1,FALSE,33
4,1,1,35,2.786,27,1,FALSE,34
4,1,1,1,3.67,24,1,FALSE,35
4,0,0,38,2.18,21,1,FALSE,36
4,1,0,40,3.166,18,0,FALSE,37
4,0,0,39,2.201,21,1,FALSE,38
4,0,1,34,2.42,21,0,FALSE,39
4,0,0,28,82.331,24,1,FALSE,40
4,1,1,44,2.402,24,1,FALSE,41
4,1,1,46,2.091,21,1,FALSE,42
4,0,0,49,4.872,18,1,FALSE,43
4,0,1,40,4.761,15,0,FALSE,44
4,0,0,44,3.347,18,1,FALSE,45
4,0,1,49,8.413,18,0,FALSE,46
4,1,1,38,2.599,21,1,FALSE,47
4,1,1,23,4.949,21,1,FALSE,48
4,1,1,26,9.369,18,1,FALSE,49
4,0,0,40,3.652,15,1,FALSE,50
4,1,0,47,2.87,12,0,FALSE,51
4,1,0,41,2.675,15,0,FALSE,52
4,0,0,43,2.646,18,1,FALSE,53
4,1,0,28,3.051,15,0,FALSE,54
4,1,1,31,3.416,18,1,FALSE,55
4,0,0,43,3.214,18,1,FALSE,56
4,1,1,40,2.864,15,1,FALSE,57
4,1,0,23,3.05,12,0,FALSE,58
4,1,0,34,2.366,15,0,FALSE,59
4,1,1,21,3.116,18,1,FALSE,1
4,1,0,30,3.257,18,0,FALSE,2
4,0,0,43,3.713,21,1,FALSE,3
4,1,1,50,3.617,21,1,FALSE,4
4,1,0,40,2.439,18,0,FALSE,5
4,0,1,36,2.291,21,0,FALSE,6
4,0,0,47,2.79,24,1,FALSE,7
4,0,0,40,8.595,18,1,FALSE,8
4,0,0,43,3.951,15,1,FALSE,9
4,0,0,35,3.967,12,1,FALSE,10
4,1,1,40,3.156,12,1,FALSE,11
4,0,0,31,2.577,9,1,FALSE,12
4,1,1,30,2.384,6,1,FALSE,13
4,1,1,22,3.393,3,1,FALSE,14
4,0,0,37,6.877,1,1,FALSE,15
4,0,1,35,3.658,1,0,FALSE,16
4,1,1,28,2.286,4,1,FALSE,17
4,1,1,27,3.026,4,1,FALSE,18
4,1,0,29,2.602,1,0,FALSE,19
4,0,1,35,2.629,4,0,FALSE,20
4,0,0,28,2.309,7,1,FALSE,21
4,1,1,34,2.467,7,1,FALSE,22
4,1,0,33,2.936,4,0,FALSE,23
4,0,1,28,2.67,7,0,FALSE,24
4,0,1,25,2.443,10,0,FALSE,25
4,0,1,35,2.18,13,0,FALSE,26
4,1,1,20,2.69,16,1,FALSE,27
4,0,0,15,2.336,16,1,FALSE,28
4,0,1,23,2.173,13,0,FALSE,29
4,0,0,27,2.196,16,1,FALSE,30
4,0,1,31,2.792,16,0,FALSE,31
4,0,1,41,2.066,19,0,FALSE,32
4,1,1,21,3.456,22,1,FALSE,33
4,1,1,31,3.698,22,1,FALSE,34
4,0,0,13,2.423,19,1,FALSE,35
4,1,1,35,3.141,16,1,FALSE,36
4,1,1,23,2.067,13,1,FALSE,37
4,0,0,47,3.976,10,1,FALSE,38
4,1,1,32,3.027,7,1,FALSE,39
4,1,1,29,3.027,4,1,FALSE,40
4,0,1,22,3.854,1,0,FALSE,41
4,0,0,35,2.365,4,1,FALSE,42
4,1,0,11,3.363,4,0,FALSE,43
4,1,1,26,2.557,7,1,FALSE,44
4,0,1,21,2.228,7,0,FALSE,45
4,1,1,31,2.837,10,1,FALSE,46
4,1,1,30,2.865,10,1,FALSE,47
4,0,0,30,2.374,7,1,FALSE,48
4,1,0,32,3.546,4,0,FALSE,49
4,1,0,24,3.469,7,0,FALSE,50
4,0,0,31,3.009,10,1,FALSE,51
4,1,1,36,3.234,10,1,FALSE,52
4,1,1,37,2.992,7,1,FALSE,53
4,1,1,25,2.632,4,1,FALSE,54
4,1,1,18,2.366,1,1,FALSE,55
4,1,1,28,2.387,1,1,FALSE,56
4,0,1,35,4.268,1,0,FALSE,1
4,1,0,38,3.956,4,0,FALSE,2
4,1,1,40,2.171,7,1,FALSE,3
4,0,0,31,2.531,7,1,FALSE,4
4,0,1,40,5.272,4,0,FALSE,5
4,1,1,45,1.876,7,1,FALSE,6
4,1,1,42,3.256,7,1,FALSE,7
4,0,1,42,3.091,4,0,FALSE,8
4,1,1,42,2.138,7,1,FALSE,9
4,0,0,38,1.965,7,1,FALSE,10
4,0,1,41,1.84,4,0,FALSE,11
4,0,1,40,2.166,7,0,FALSE,12
4,0,1,41,2.645,10,0,FALSE,13
4,1,1,40,2.151,13,1,FALSE,14
4,1,0,35,3.306,13,0,FALSE,15
4,1,1,36,8.254,16,1,FALSE,16
4,1,1,36,2.827,16,1,FALSE,17
4,0,1,40,1.836,13,0,FALSE,18
4,0,0,36,2.47,16,1,FALSE,19
4,1,1,39,2.187,16,1,FALSE,20
4,1,1,38,2.268,13,1,FALSE,21
4,1,1,39,1.971,10,1,FALSE,22
4,0,1,38,2.269,7,0,FALSE,23
4,1,1,35,3.431,10,1,FALSE,24
4,0,0,36,3.181,10,1,FALSE,25
4,0,1,40,1.916,7,0,FALSE,26
4,1,0,36,2.614,10,0,FALSE,27
4,0,0,38,2.604,13,1,FALSE,28
4,1,1,42,2.2,13,1,FALSE,29
4,0,0,33,3.335,10,1,FALSE,30
4,0,0,36,2.678,7,1,FALSE,31
4,1,0,36,2.687,4,0,FALSE,32
4,0,0,34,3.312,7,1,FALSE,33
4,1,1,35,2.026,7,1,FALSE,34
4,0,1,35,2.316,4,0,FALSE,35
4,1,0,35,5.863,7,0,FALSE,36
4,1,1,36,1.982,10,1,FALSE,37
4,1,1,38,2.282,10,1,FALSE,38
4,0,1,40,2.361,7,0,FALSE,39
4,1,1,39,3.637,10,1,FALSE,40
4,0,0,33,4.22,10,1,FALSE,41
4,1,1,38,2.192,7,1,FALSE,42
4,1,1,39,2.95,4,1,FALSE,43
4,1,1,38,5.653,1,1,FALSE,44
4,1,1,39,3.397,1,1,FALSE,45
4,0,1,41,6.861,1,0,FALSE,46
4,0,0,33,2.54,4,1,FALSE,47
4,1,0,37,2.637,4,0,FALSE,48
4,1,1,38,2.914,7,1,FALSE,49
4,1,1,35,2.781,7,1,FALSE,50
4,0,0,34,2.638,4,1,FALSE,51
4,0,0,35,2.519,1,1,FALSE,52
4,0,1,34,3.352,1,0,FALSE,53
4,0,0,33,2.468,4,1,FALSE,54
4,0,1,30,1.976,4,0,FALSE,55
4,0,1,36,2.273,7,0,FALSE,56
4,1,1,37,2.457,10,1,FALSE,57
4,1,0,34,2.386,10,0,FALSE,58
4,1,0,35,3.028,13,0,FALSE,59
4,0,1,36,3.903,16,0,FALSE,60
4,0,1,20,2.627,19,0,FALSE,1
4,1,1,34,2.455,22,1,FALSE,2
4,0,0,36,3.028,22,1,FALSE,3
4,0,0,31,2.539,19,1,FALSE,4
4,0,0,31,2.451,16,1,FALSE,5
4,0,0,28,2.593,13,1,FALSE,6
4,1,0,23,3.817,10,0,FALSE,7
4,0,0,28,2.34,13,1,FALSE,8
4,0,1,26,4.209,13,0,FALSE,9
4,1,1,32,2.781,16,1,FALSE,10
4,0,0,18,3.002,16,1,FALSE,11
4,1,0,20,2.073,13,0,FALSE,12
4,1,1,33,3.532,16,1,FALSE,13
4,0,0,24,2.532,16,1,FALSE,14
4,0,0,35,2.098,13,1,FALSE,15
4,0,1,33,3.919,10,0,FALSE,16
4,1,1,11,4.677,13,1,FALSE,17
4,1,1,32,2.676,13,1,FALSE,18
4,1,1,25,4.226,10,1,FALSE,19
4,0,0,17,2.357,7,1,FALSE,20
4,1,0,22,2.304,4,0,FALSE,21
4,1,0,26,2.11,7,0,FALSE,22
4,1,0,25,2.643,10,0,FALSE,23
4,0,1,22,2.749,13,0,FALSE,24
4,0,1,20,2.26,16,0,FALSE,25
4,1,1,30,2.182,19,1,FALSE,26
4,0,0,15,3.219,19,1,FALSE,27
4,0,0,21,2.399,16,1,FALSE,28
4,0,0,31,2.568,13,1,FALSE,29
4,1,0,26,2.584,10,0,FALSE,30
4,1,1,14,2.433,13,1,FALSE,31
4,1,1,47,3.342,13,1,FALSE,32
4,0,0,42,2.425,10,1,FALSE,33
4,0,0,26,2.721,7,1,FALSE,34
4,0,0,42,2.418,4,1,FALSE,35
4,1,0,26,2.639,1,0,FALSE,36
4,1,0,24,2.498,4,0,FALSE,37
4,0,1,22,3.471,7,0,FALSE,38
4,0,0,49,5.442,10,1,FALSE,39
4,1,1,30,2.888,10,1,FALSE,40
4,0,0,23,3.021,7,1,FALSE,41
4,0,0,32,2.244,4,1,FALSE,42
4,0,0,38,2.289,1,1,FALSE,43
4,1,0,37,2.981,1,0,FALSE,44
4,0,0,29,3.075,4,1,FALSE,45
4,1,1,15,2.427,4,1,FALSE,46
4,0,1,28,3.821,1,0,FALSE,47
4,1,1,21,3.452,4,1,FALSE,48
4,1,1,26,2.408,4,1,FALSE,49
4,0,0,22,2.296,1,1,FALSE,50
4,0,0,30,2.521,1,1,FALSE,51
4,0,1,17,3.043,1,0,FALSE,52
4,1,1,30,2.62,4,1,FALSE,53
4,0,0,42,3.495,4,1,FALSE,54
4,1,1,28,3.519,1,1,FALSE,55
4,0,0,31,2.325,1,1,FALSE,56
4,1,1,16,2.892,1,1,FALSE,57
4,0,1,27,1.793,1,0,FALSE,58
4,0,1,16,2.351,4,0,FALSE,59
4,1,1,17,2.04,7,1,FALSE,60
5,1,1,29,3.08200000005,27,1,FALSE,1
5,0,0,50,3.40680000000005,24,1,FALSE,2
5,1,0,40,5.06040000006999,21,0,FALSE,3
5,1,0,45,5.07169999997003,24,0,FALSE,4
5,0,0,50,3.08789999993,27,1,FALSE,5
5,1,1,37,3.70620000002004,27,1,FALSE,6
5,0,0,45,3.55570000002999,24,1,FALSE,7
5,1,0,35,3.79190000006999,21,0,FALSE,8
5,0,0,50,3.03270000010001,24,1,FALSE,9
5,1,1,42,3.42749999999005,24,1,FALSE,10
5,1,1,40,3.35320000001002,15,1,FALSE,11
5,0,0,50,3.59079999999999,12,1,FALSE,12
5,0,0,50,2.97510000004002,12,1,FALSE,13
5,0,0,50,3.85939999996003,12,1,FALSE,14
5,1,0,38,6.68800000007998,9,0,FALSE,15
5,0,0,50,3.10129999998002,15,1,FALSE,16
5,1,1,41,5.42570000002004,15,1,FALSE,17
5,1,0,50,4.03440000000998,15,0,FALSE,18
5,0,0,50,2.71149999997998,15,1,FALSE,19
5,0,1,25,3.83170000009995,12,0,FALSE,20
5,1,1,34,3.18030000001006,18,1,FALSE,21
5,0,0,50,3.79929999994999,15,1,FALSE,22
5,1,0,50,2.93420000000997,9,0,FALSE,23
5,0,1,39,2.76730000006,12,0,FALSE,24
5,1,0,50,2.97620000002999,15,0,FALSE,25
5,1,1,41,3.25919999997003,18,1,FALSE,26
5,1,1,46,2.82959999994002,18,1,FALSE,27
5,0,0,50,4.16890000004997,18,1,FALSE,28
5,1,1,45,3.19699999993003,18,1,FALSE,29
5,1,1,41,2.36210000002,12,1,FALSE,30
5,1,0,31,3.15850000002002,9,0,FALSE,31
5,0,1,46,2.9202000000499,12,0,FALSE,32
5,1,1,47,2.70389999995998,15,1,FALSE,33
5,1,0,39,2.40170000004,15,0,FALSE,34
5,1,1,45,14.4628000000899,18,1,FALSE,35
5,1,1,43,6.84039999999001,18,1,FALSE,36
5,1,1,40,2.96050000004005,15,1,FALSE,37
5,1,0,49,2.78029999997991,12,0,FALSE,38
5,1,1,47,2.67359999997995,18,1,FALSE,39
5,1,0,49,2.98479999997991,18,0,FALSE,40
5,0,0,49,2.80189999995998,21,1,FALSE,41
5,1,1,40,3.36759999999986,24,1,FALSE,1
5,1,0,44,2.42230000000005,24,0,FALSE,2
5,0,0,46,3.14459999999986,27,1,FALSE,3
5,1,1,44,2.44130000009993,27,1,FALSE,4
5,0,0,50,3.36410000000009,21,1,FALSE,5
5,0,0,50,2.94040000000014,15,1,FALSE,6
5,1,1,40,2.42509999999986,12,1,FALSE,7
5,1,0,49,2.284,9,0,FALSE,8
5,1,1,47,3.63539999999991,12,1,FALSE,9
5,1,1,46,2.6975,18,1,FALSE,10
5,0,0,47,3.03320000009984,18,1,FALSE,11
5,1,1,44,2.45309999990021,15,1,FALSE,12
5,1,1,48,2.30559999989998,15,1,FALSE,13
5,0,1,50,2.97240000010002,12,0,FALSE,14
5,1,1,50,2.60110000009998,12,1,FALSE,15
5,1,0,46,2.54379999999981,9,0,FALSE,16
5,1,0,48,2.71070000009984,12,0,FALSE,17
5,1,1,48,3.11379999989993,15,1,FALSE,18
5,0,0,48,2.33369999990007,18,1,FALSE,19
5,0,0,49,3.15980000000005,18,1,FALSE,20
5,0,0,49,2.48210000000009,15,1,FALSE,21
5,0,0,50,2.32759999999986,12,1,FALSE,22
5,1,0,43,2.85050000009988,9,0,FALSE,23
5,1,0,47,2.36519999999995,12,0,FALSE,24
5,0,0,48,2.85050000009988,15,1,FALSE,25
5,1,1,44,2.73669999999995,15,1,FALSE,26
5,1,1,48,3.70780000000005,12,1,FALSE,27
5,1,0,47,2.81040000010002,9,0,FALSE,28
5,0,0,49,2.54170000010007,12,1,FALSE,29
5,0,1,47,2.84280000000005,12,0,FALSE,30
5,0,0,48,2.67620000000019,15,1,FALSE,31
5,1,1,49,2.39120000010007,15,1,FALSE,32
5,0,0,49,2.13810000000009,12,1,FALSE,33
5,0,1,49,2.18530000000005,6,0,FALSE,34
5,0,0,47,2.00369999999995,9,1,FALSE,35
5,1,1,47,1.99640000010002,9,1,FALSE,36
5,1,1,47,2.79709999989998,6,1,FALSE,37
5,1,1,46,2.61739999999991,4,1,FALSE,38
5,1,0,48,2.41309999999986,4,0,FALSE,39
5,1,0,48,2.95439999990002,7,0,FALSE,40
5,0,1,42,2.17719999999995,7,0,FALSE,41
5,1,0,49,1.8125,10,0,FALSE,42
5,0,0,48,2.19110000009998,13,1,FALSE,43
5,0,0,36,2.82319999999995,13,1,FALSE,44
5,1,1,41,2.813,10,1,FALSE,1
5,0,0,38,2.52340000010002,7,1,FALSE,2
5,1,1,40,3.00059999989998,4,1,FALSE,3
5,0,0,41,2.21269999999972,1,1,FALSE,4
5,1,0,47,2.01729999990016,1,0,FALSE,5
5,0,1,42,2.65680000000028,4,0,FALSE,6
5,0,0,45,2.3415,7,1,FALSE,7
5,1,1,43,2.24729999990016,7,1,FALSE,8
5,1,1,46,2.51579999999981,4,1,FALSE,9
5,1,0,48,2.05760000010021,1,0,FALSE,10
5,0,0,47,1.90229999999981,4,1,FALSE,11
5,1,1,47,2.25210000010021,4,1,FALSE,12
5,1,0,43,2.00359999989998,1,0,FALSE,13
5,0,0,49,2.27930000009993,4,1,FALSE,14
5,1,1,46,2.11729999990016,4,1,FALSE,15
5,0,0,46,1.92639999999991,1,1,FALSE,16
5,1,1,42,2.40829999999981,1,1,FALSE,17
5,0,1,40,1.94240000010002,1,0,FALSE,18
5,0,1,41,3.36559999989998,4,0,FALSE,19
5,1,1,43,2.85370000000019,7,1,FALSE,20
5,1,1,45,3.16110000010021,7,1,FALSE,21
5,0,0,45,4.13240000000037,4,1,FALSE,22
5,1,0,49,2.1925,1,0,FALSE,23
5,0,0,45,2.20389999999991,4,1,FALSE,24
5,0,0,46,2.09170000000019,4,1,FALSE,25
5,0,0,44,2.02790000000037,1,1,FALSE,26
5,0,0,47,2.12610000000009,1,1,FALSE,27
5,1,1,46,2.10330000009993,1,1,FALSE,28
5,1,1,44,3.2415,1,1,FALSE,29
5,0,1,47,3.64129999999981,1,0,FALSE,30
5,1,0,46,1.96260000000009,4,0,FALSE,31
5,1,1,47,1.7325,7,1,FALSE,32
5,0,0,48,1.99090000010002,7,1,FALSE,33
5,1,0,48,2.0765,4,0,FALSE,34
5,0,0,47,2.06790000000037,7,1,FALSE,35
5,1,1,45,2.85319999990007,7,1,FALSE,36
5,0,0,46,1.84670000000019,4,1,FALSE,37
5,0,1,46,2.63099999989988,1,0,FALSE,38
5,0,1,46,1.69890000010002,4,0,FALSE,39
5,1,1,47,2.62320000009984,7,1,FALSE,40
5,1,1,45,1.98319999999972,7,1,FALSE,41
5,1,0,44,2.576,4,0,FALSE,42
5,1,1,45,1.97599999989988,7,1,FALSE,43
5,1,0,47,2.0273000001004,7,0,FALSE,44
5,0,0,47,1.874,7,1,FALSE,45
5,1,0,50,2.04390000010002,4,0,FALSE,46
5,1,1,47,2.05299999989988,7,1,FALSE,47
5,1,1,44,2.27140000010002,7,1,FALSE,48
5,1,1,47,4.01,7,1,FALSE,49
5,1,0,44,2.48090000010002,7,0,FALSE,50
5,1,1,45,2.18560000000009,10,1,FALSE,51
5,1,0,43,3.76860000000009,10,0,FALSE,52
5,1,1,44,1.62630000000028,13,1,FALSE,53
5,0,1,43,4.98959999989998,13,0,FALSE,1
5,0,0,45,2.40600000010012,16,1,FALSE,2
5,0,0,43,2.64709999989998,16,1,FALSE,3
5,0,0,46,1.92890000010002,13,1,FALSE,4
5,1,1,45,2.34059999999963,10,1,FALSE,5
5,1,0,44,2.33489999999991,7,0,FALSE,6
5,0,1,43,1.95489999990026,10,0,FALSE,7
5,1,1,45,2.06920000000019,13,1,FALSE,8
5,1,1,47,2.10320000000019,13,1,FALSE,9
5,1,1,45,2.9012999998997,10,1,FALSE,10
5,1,1,45,2.34069999990007,7,1,FALSE,11
5,0,0,44,1.84900000010012,4,1,FALSE,12
5,1,0,46,1.97519999999972,1,0,FALSE,13
5,1,0,45,2.41540000010002,4,0,FALSE,14
5,1,0,47,2.66449999990035,7,0,FALSE,15
5,1,1,46,2.0425,10,1,FALSE,16
5,0,0,48,1.89440000000037,10,1,FALSE,17
5,0,0,44,2.37639999989979,7,1,FALSE,18
5,0,0,46,2.51610000000009,4,1,FALSE,19
5,1,0,46,1.89709999989998,1,0,FALSE,20
5,1,0,48,1.91529999999981,4,0,FALSE,21
5,0,0,46,2.25159999989998,7,1,FALSE,22
5,0,0,45,1.8652999998997,7,1,FALSE,23
5,0,0,44,1.83420000009984,4,1,FALSE,24
5,0,0,48,2.38589999999991,1,1,FALSE,25
5,0,0,47,2.45760000009974,1,1,FALSE,26
5,0,0,44,1.8971999998996,1,1,FALSE,27
5,0,1,46,1.82309999989998,1,0,FALSE,28
5,1,0,47,4.7127000001003,4,0,FALSE,29
5,0,0,42,3.2005,7,1,FALSE,30
5,1,0,42,2.11189999999991,7,0,FALSE,31
5,1,1,44,2.25089999999991,10,1,FALSE,32
5,0,1,48,3.42700000010012,10,0,FALSE,33
5,1,0,43,2.29160000000009,13,0,FALSE,34
5,0,0,46,2.07839999999991,16,1,FALSE,35
5,0,0,47,2.31460000000009,16,1,FALSE,36
5,1,1,44,2.03689999999991,13,1,FALSE,37
5,0,1,43,2.10400000009965,10,0,FALSE,38
5,0,0,40,2.20989999999991,13,1,FALSE,39
5,1,0,44,2.16580000009993,13,0,FALSE,40
5,1,0,50,2.5617000001003,10,0,FALSE,41
5,0,0,41,2.37339999999991,13,1,FALSE,42
5,1,1,44,2.21979999999981,13,1,FALSE,43
5,1,1,50,2.706,7,1,FALSE,44
5,0,0,46,1.65339999989979,4,1,FALSE,45
5,1,1,47,2.48129999999981,1,1,FALSE,46
5,1,0,50,2.20560000000009,1,0,FALSE,47
5,0,0,43,1.59979999990016,4,1,FALSE,48
5,0,0,47,2.06670000009984,4,1,FALSE,49
5,0,0,40,2.15960000000009,1,1,FALSE,50
5,1,1,50,2.04410000010021,4,1,FALSE,51
6,1,1,21,2.77870000000999,24,1,FALSE,1
6,1,1,41,2.95510000000001,24,1,FALSE,2
6,1,1,29,2.62280000000002,21,1,FALSE,3
6,0,0,29,3.03100000001001,18,1,FALSE,4
6,1,1,21,2.54490000001001,15,1,FALSE,5
6,1,1,45,2.82070000000001,12,1,FALSE,6
6,0,1,2,11.7452,9,0,FALSE,7
6,0,1,14,4.28079999999999,12,0,FALSE,8
6,0,0,26,2.63970000000001,15,1,FALSE,9
6,0,0,13,3.32950000001001,15,1,FALSE,10
6,0,1,23,2.60510000000003,12,0,FALSE,11
6,1,1,17,2.69620000000997,15,1,FALSE,12
6,1,1,19,2.34469999999995,15,1,FALSE,13
6,0,0,5,3.67459999999998,12,1,FALSE,14
6,1,1,41,3.11590000000998,9,1,FALSE,15
6,1,1,12,2.71710000000999,6,1,FALSE,16
6,1,1,12,3.18030000001,3,1,FALSE,17
6,1,1,13,2.66779999999003,1,1,FALSE,18
6,0,1,12,2.31999999999005,1,0,FALSE,19
6,1,1,11,2.4375,4,1,FALSE,20
6,0,1,17,3.29040000000002,4,0,FALSE,21
6,1,1,14,2.67200000000995,7,1,FALSE,22
6,1,1,8,2.28529999999999,7,1,FALSE,23
6,1,1,10,2.2145,4,1,FALSE,24
6,0,0,9,2.91490000000998,1,1,FALSE,25
6,1,1,8,2.28350000001001,1,1,FALSE,26
6,0,0,12,2.76309999998997,1,1,FALSE,27
6,1,0,3,3.22229999998998,1,0,FALSE,28
6,1,1,46,2.91090000000002,4,1,FALSE,29
6,1,1,11,3.04829999998998,4,1,FALSE,30
6,1,1,22,2.23560000000003,1,1,FALSE,31
6,0,1,3,2.59179999998998,1,0,FALSE,32
6,0,0,2,3.43049999999005,4,1,FALSE,33
6,1,1,5,2.88439999999001,4,1,FALSE,34
6,1,0,2,2.57009999999998,1,0,FALSE,35
6,0,0,5,2.33579999999999,4,1,FALSE,36
6,1,0,2,2.65379999999999,4,0,FALSE,37
6,0,0,13,2.53659999999002,7,1,FALSE,38
6,0,0,5,2.37470000000001,7,1,FALSE,39
6,0,0,5,2.69370000001002,4,1,FALSE,40
6,1,1,9,3.50989999999996,1,1,FALSE,41
6,0,1,8,2.57169999999995,1,0,FALSE,42
6,1,0,3,2.32159999999002,4,0,FALSE,43
6,1,0,31,2.43109999999998,7,0,FALSE,44
6,1,1,40,2.55010000000999,10,1,FALSE,45
6,1,0,19,2.28520000000001,10,0,FALSE,46
6,0,1,28,2.59180000000005,13,0,FALSE,47
6,1,1,20,2.49789999999991,16,1,FALSE,48
6,0,0,32,2.5775,16,1,FALSE,49
6,1,1,36,2.39089999999991,13,1,FALSE,50
6,0,0,19,2.2155,10,1,FALSE,51
6,1,1,49,2.3535,7,1,FALSE,52
6,0,1,44,2.4284999999901,4,0,FALSE,53
6,1,1,34,2.66320000001008,7,1,FALSE,54
6,1,1,4,4.48289999999001,7,1,FALSE,55
6,1,1,15,2.28370000000007,4,1,FALSE,56
6,1,0,40,2.3585,1,0,FALSE,57
6,1,0,39,2.338,4,0,FALSE,58
6,1,0,19,3.11509999998996,7,0,FALSE,59
6,1,1,3,2.68720000000007,10,1,FALSE,60
6,0,0,24,2.30159999999998,10,1,FALSE,1
6,0,0,24,2.17009999999998,7,1,FALSE,2
6,0,0,36,2.12389999999001,4,1,FALSE,3
6,1,0,15,2.13029999999003,1,0,FALSE,4
6,0,0,23,1.99629999999993,4,1,FALSE,5
6,0,0,25,2.644,4,1,FALSE,6
6,0,0,14,2.10879999999003,1,1,FALSE,7
6,1,1,49,2.56309999999998,1,1,FALSE,8
6,0,0,11,2.25600000001001,1,1,FALSE,9
6,1,0,5,2.20259999998996,1,0,FALSE,10
6,1,1,47,2.62409999999998,4,1,FALSE,11
6,0,1,11,2.29870000000007,4,0,FALSE,12
6,1,1,3,2.88770000000007,7,1,FALSE,13
6,0,0,12,2.18770000000007,7,1,FALSE,14
6,0,0,11,2.43470000000997,4,1,FALSE,15
6,1,1,5,2.16659999999998,1,1,FALSE,16
6,0,1,6,6.59210000000009,1,0,FALSE,17
6,0,1,38,2.39780000000994,4,0,FALSE,18
6,1,1,32,2.72159999998996,7,1,FALSE,19
6,1,0,12,2.10140000000002,7,0,FALSE,20
6,1,1,17,1.9935,10,1,FALSE,21
6,1,1,6,2.57669999999995,10,1,FALSE,22
6,1,1,6,2.80059999998997,7,1,FALSE,23
6,1,0,20,2.14749999998999,4,0,FALSE,24
6,0,1,18,2.06730000000005,7,0,FALSE,25
6,1,0,6,3.2035,10,0,FALSE,26
6,1,0,8,2.44459999999008,13,0,FALSE,27
6,0,0,4,2.32840000000002,16,1,FALSE,28
6,1,1,40,2.25979999999993,16,1,FALSE,29
6,1,1,5,2.106,13,1,FALSE,30
6,0,0,31,2.29760000000999,10,1,FALSE,31
6,1,1,7,2.0775,7,1,FALSE,32
6,0,1,3,2.39909999999998,4,0,FALSE,33
6,0,0,10,2.05519999999995,7,1,FALSE,34
6,1,1,3,3.14459999998996,7,1,FALSE,35
6,0,0,3,3.34389999999001,4,1,FALSE,36
6,1,0,6,4.05919999999995,1,0,FALSE,37
6,1,0,4,2.07090000000002,4,0,FALSE,38
6,1,0,3,2.06879999999004,7,0,FALSE,39
6,1,0,4,2.60030000000005,10,0,FALSE,40
6,0,0,3,2.32040000000002,13,1,FALSE,41
6,0,1,18,11.43110000001,13,0,FALSE,42
6,0,1,2,3.35169999999995,16,0,FALSE,43
6,0,0,6,2.0855,19,1,FALSE,44
6,1,1,6,2.163,19,1,FALSE,45
6,0,0,2,3.402,16,1,FALSE,46
6,0,1,6,2.863,13,0,FALSE,47
6,1,1,5,2.42040000000002,16,1,FALSE,48
6,0,0,43,2.274,16,1,FALSE,49
6,0,0,17,2.44269999999995,13,1,FALSE,50
6,1,0,2,3.187,10,0,FALSE,51
6,1,1,17,1.9805,13,1,FALSE,52
6,1,1,7,2.12440000000002,13,1,FALSE,53
6,0,0,3,2.48539999999991,10,1,FALSE,54
6,0,1,10,1.89539999999991,7,0,FALSE,55
6,1,1,9,2.27460000000009,10,1,FALSE,56
6,1,0,2,2.36659999999986,10,0,FALSE,57
6,0,0,4,1.91309999999986,13,1,FALSE,58
6,0,0,7,2.02930000000005,13,1,FALSE,59
6,1,0,3,2.376,10,0,FALSE,60
6,0,0,5,2.12770000000019,13,1,FALSE,1
6,1,0,4,27.5292,13,0,FALSE,2
6,0,0,4,2.34010000000009,16,1,FALSE,3
6,0,0,8,1.95230000000005,16,1,FALSE,4
6,0,0,3,2.33939999999991,13,1,FALSE,5
6,0,0,4,2.025,10,1,FALSE,6
6,1,0,4,2.37930000000005,7,0,FALSE,7
6,0,0,5,1.91210000000009,10,1,FALSE,8
6,0,0,4,2.48090000000014,10,1,FALSE,9
6,1,0,18,3.24609999999986,7,0,FALSE,10
6,1,1,23,2.01360000000009,10,1,FALSE,11
6,1,1,24,2.088,10,1,FALSE,12
6,1,1,8,2.63510000000009,7,1,FALSE,13
6,0,0,6,2.0695,4,1,FALSE,14
6,1,0,7,1.88039999999991,1,0,FALSE,15
6,0,0,6,1.99060000000009,4,1,FALSE,16
6,0,1,12,2.11380000000005,4,0,FALSE,17
6,0,0,8,2.07630000000005,7,1,FALSE,18
6,1,1,9,1.9075,7,1,FALSE,19
6,1,0,6,2.23260000000009,4,0,FALSE,20
6,0,0,5,1.96089999999991,7,1,FALSE,21
6,1,1,6,43.7521000000001,7,1,FALSE,22
6,0,0,5,2.19460000000009,4,1,FALSE,23
6,1,1,38,2.50640000000014,1,1,FALSE,24
6,0,1,6,2.37969999999995,1,0,FALSE,25
6,0,1,7,2.23010000000009,4,0,FALSE,26
6,1,0,14,2.06160000000009,7,0,FALSE,27
6,0,0,8,2.18730000000005,10,1,FALSE,28
6,1,1,9,1.80230000000005,10,1,FALSE,29
6,0,0,6,2.18519999999995,7,1,FALSE,30
6,0,1,30,1.91,4,0,FALSE,31
6,1,1,5,2.11390000000014,7,1,FALSE,32
6,1,0,2,2.181,7,0,FALSE,33
6,0,1,4,2.32310000000009,10,0,FALSE,34
6,0,0,9,1.96159999999986,13,1,FALSE,35
6,0,0,5,2.20280000000005,13,1,FALSE,36
6,0,0,2,2.13560000000009,10,1,FALSE,37
6,0,1,10,2.2175,7,0,FALSE,38
6,0,1,2,14.8443999999999,10,0,FALSE,39
6,0,0,12,2.00429999999981,13,1,FALSE,40
6,1,0,4,2.03310000000009,13,0,FALSE,41
6,0,0,4,2.03489999999991,16,1,FALSE,42
6,1,1,6,2.14710000000009,16,1,FALSE,43
6,0,0,13,1.97860000000009,13,1,FALSE,44
6,0,0,22,1.85060000000009,10,1,FALSE,45
6,1,0,4,2.0305,7,0,FALSE,46
6,1,1,13,1.89390000000014,10,1,FALSE,47
6,1,1,3,2.00980000000005,10,1,FALSE,48
6,1,0,4,2.03819999999995,7,0,FALSE,49
6,0,1,5,1.91089999999991,10,0,FALSE,50
6,1,1,9,2.2225,13,1,FALSE,51
6,1,0,3,1.9935,13,0,FALSE,52
6,0,0,14,2.14209999999986,16,1,FALSE,53
6,0,0,32,2.65530000000005,16,1,FALSE,54
6,0,0,15,1.95410000000009,13,1,FALSE,55
6,0,0,13,2.1485,10,1,FALSE,56
6,1,0,2,2.7885,7,0,FALSE,57
6,0,0,6,2.04419999999995,10,1,FALSE,58
6,0,0,21,2.1575,10,1,FALSE,59
6,0,0,12,2.07809999999986,7,1,FALSE,60
6,0,0,21,2.1395,4,1,FALSE,1
6,1,0,12,2.354,1,0,FALSE,2
6,1,1,13,1.94969999999995,4,1,FALSE,3
6,0,0,15,1.86180000000005,4,1,FALSE,4
6,1,0,6,2.50730000000005,1,0,FALSE,5
6,1,1,5,1.81060000000009,4,1,FALSE,6
6,0,1,17,1.90310000000009,4,0,FALSE,7
6,1,1,6,2.05219999999995,7,1,FALSE,8
6,1,1,4,2.66480000000005,7,1,FALSE,9
6,1,1,3,2.69319999999995,4,1,FALSE,10
6,0,0,12,1.86419999999995,1,1,FALSE,11
6,0,1,3,2.10460000000009,1,0,FALSE,12
6,1,0,4,2.24210000000009,4,0,FALSE,13
6,1,0,5,2.38,7,0,FALSE,14
6,1,1,25,2.45830000000005,10,1,FALSE,15
6,0,0,9,1.96839999999991,10,1,FALSE,16
6,1,1,5,1.74560000000009,7,1,FALSE,17
6,1,1,5,2.01280000000005,4,1,FALSE,18
6,0,0,5,1.79439999999991,1,1,FALSE,19
6,1,1,12,1.92229999999981,1,1,FALSE,20
6,1,0,9,1.86439999999991,1,0,FALSE,21
6,1,0,6,1.78089999999991,4,0,FALSE,22
6,0,0,3,1.93330000000005,7,1,FALSE,23
6,1,0,4,1.63490000000014,7,0,FALSE,24
6,0,0,6,1.89210000000009,10,1,FALSE,25
6,0,0,3,1.922,10,1,FALSE,26
6,0,0,3,1.96730000000005,7,1,FALSE,27
6,0,0,41,2.5505,4,1,FALSE,28
6,0,1,20,1.8825,1,0,FALSE,29
6,1,0,6,2.28480000000005,4,0,FALSE,30
6,0,0,4,1.79210000000009,7,1,FALSE,31
6,0,0,5,1.8675,7,1,FALSE,32
6,1,1,7,1.90410000000009,4,1,FALSE,33
6,1,1,3,2.266,1,1,FALSE,34
6,0,1,3,2.30790000000014,1,0,FALSE,35
6,1,1,7,1.75520000000019,4,1,FALSE,36
6,1,0,3,1.86219999999995,4,0,FALSE,37
6,1,0,4,1.83569999999995,7,0,FALSE,38
6,0,0,4,1.9825,10,1,FALSE,39
6,0,0,7,1.62069999999995,10,1,FALSE,40
6,1,0,8,1.72960000000009,7,0,FALSE,41
6,0,0,11,1.73909999999986,10,1,FALSE,42
6,1,0,4,1.868,10,0,FALSE,43
6,0,0,37,2.93659999999986,13,1,FALSE,44
6,1,0,5,1.97989999999991,13,0,FALSE,45
6,0,0,6,1.98810000000009,16,1,FALSE,46
6,0,0,6,3.06180000000005,16,1,FALSE,47
6,0,0,10,1.74569999999995,13,1,FALSE,48
6,0,0,4,1.91359999999986,10,1,FALSE,49
6,0,0,4,1.957,7,1,FALSE,50
6,0,0,32,1.97130000000005,4,1,FALSE,51
6,1,1,24,1.98980000000005,1,1,FALSE,52
6,1,1,4,2.04230000000005,1,1,FALSE,53
6,0,1,7,2.13990000000014,1,0,FALSE,54
6,0,0,12,1.84060000000009,4,1,FALSE,55
6,1,1,4,2.23660000000009,4,1,FALSE,56
6,0,0,36,2.149,1,1,FALSE,57
6,1,0,10,1.99619999999995,1,0,FALSE,58
6,0,0,6,2.01280000000005,4,1,FALSE,59
6,0,0,5,1.82390000000014,4,1,FALSE,60
7,0,1,32,5.399,39,0,FALSE,1
7,1,1,40,3.922,42,1,FALSE,2
7,1,1,50,4.058,42,1,FALSE,3
7,1,1,50,3.696,42,1,FALSE,4
7,0,0,47,5.167,45,1,FALSE,5
7,1,1,49,4.89,45,1,FALSE,6
7,0,0,50,4.649,42,1,FALSE,7
7,1,0,50,6.681,39,0,FALSE,8
7,1,1,49,3.881,42,1,FALSE,9
7,0,0,49,4.329,36,1,FALSE,10
7,0,0,49,2.937,30,1,FALSE,11
7,0,0,50,4.458,33,1,FALSE,12
7,1,1,50,4.714,27,1,FALSE,13
7,1,1,42,3.018,21,1,FALSE,14
7,0,0,50,3.306,15,1,FALSE,15
7,0,0,50,4.057,12,1,FALSE,16
7,1,0,49,4.601,15,0,FALSE,17
7,1,1,15,5.256,18,1,FALSE,18
7,0,0,49,3.121,15,1,FALSE,19
7,1,0,48,2.474,12,0,FALSE,20
7,1,1,40,3.561,15,1,FALSE,21
7,0,0,43,2.794,15,1,FALSE,22
7,1,1,37,3.225,12,1,FALSE,23
7,1,1,36,3.969,9,1,FALSE,24
7,1,0,25,2.913,6,0,FALSE,25
7,1,1,39,3.577,9,1,FALSE,26
7,0,0,24,4.056,9,1,FALSE,27
7,0,0,43,2.665,6,1,FALSE,28
7,0,0,46,4.303,3,1,FALSE,29
7,1,0,46,2.921,1,0,FALSE,30
7,0,0,43,2.513,4,1,FALSE,31
7,0,0,40,2.65799999998999,4,1,FALSE,1
7,0,0,39,7.825,1,1,FALSE,2
7,0,0,39,3.448,1,1,FALSE,3
7,0,0,43,3.073,1,1,FALSE,4
7,0,0,42,2.785,1,1,FALSE,5
7,1,0,46,3.432,1,0,FALSE,6
7,1,0,40,3.168,4,0,FALSE,7
7,0,0,45,3.138,7,1,FALSE,8
7,1,0,44,3.065,7,0,FALSE,9
7,1,0,41,2.978,10,0,FALSE,10
7,1,0,38,2.753,13,0,FALSE,11
7,1,1,50,4.058,16,1,FALSE,12
7,0,0,45,2.913,16,1,FALSE,13
7,0,0,48,2.961,13,1,FALSE,14
7,0,1,49,3.881,10,0,FALSE,15
7,1,0,45,3.497,13,0,FALSE,16
7,1,1,46,3.13,16,1,FALSE,17
7,0,0,42,2.521,16,1,FALSE,18
7,0,1,42,2.649,10,0,FALSE,19
7,1,0,46,2.537,13,0,FALSE,20
7,0,1,41,3.329,16,0,FALSE,21
7,0,0,37,2.442,19,1,FALSE,22
7,1,0,26,2.793,19,0,FALSE,23
7,1,1,43,2.833,22,1,FALSE,24
7,1,1,25,58.441,22,1,FALSE,25
7,1,0,36,2.777,19,0,FALSE,26
7,0,0,37,2.081,22,1,FALSE,27
7,0,1,32,3.185,22,0,FALSE,28
7,1,0,27,2.77,25,0,FALSE,29
7,0,0,34,2.785,28,1,FALSE,30
7,0,1,3,12.833,28,0,FALSE,31
7,1,1,26,2.561,31,1,FALSE,32
7,0,0,33,2.433,31,1,FALSE,33
7,1,1,21,2.729,28,1,FALSE,34
7,1,1,35,2.338,25,1,FALSE,35
7,0,0,21,2.385,22,1,FALSE,36
7,1,1,37,2.586,19,1,FALSE,37
7,0,0,29,2.497,16,1,FALSE,38
7,0,1,25,3.178,13,0,FALSE,39
7,0,0,35,2.697,16,1,FALSE,40
7,1,0,24,2.337,16,0,FALSE,41
7,1,0,26,2.905,19,0,FALSE,42
7,1,1,24,2.313,22,1,FALSE,43
7,1,0,20,2.361,22,0,FALSE,44
7,0,1,38,2.681,25,0,FALSE,45
7,1,1,33,2.569,28,1,FALSE,46
7,0,0,20,2.753,28,1,FALSE,47
7,1,1,25,2.297,25,1,FALSE,48
7,1,0,23,3.217,22,0,FALSE,49
7,0,0,20,2.745,25,1,FALSE,50
7,0,0,43,2.521,25,1,FALSE,51
7,0,1,24,2.482,22,0,FALSE,52
7,1,1,33,3.017,25,1,FALSE,53
7,0,1,28,2.586,25,0,FALSE,54
7,1,1,34,2.665,28,1,FALSE,55
7,0,0,20,2.818,28,1,FALSE,56
7,1,1,17,2.337,25,1,FALSE,57
7,0,1,22,5.002,22,0,FALSE,58
7,1,1,28,3.105,25,1,FALSE,59
7,1,1,35,2.97,25,1,FALSE,1
7,1,0,22,2.873,22,0,FALSE,2
7,0,0,30,2.722,25,1,FALSE,3
7,1,1,40,2.777,25,1,FALSE,4
7,1,1,34,2.473,22,1,FALSE,5
7,0,0,24,2.609,19,1,FALSE,6
7,1,0,27,2.473,16,0,FALSE,7
7,1,1,27,2.713,19,1,FALSE,8
7,1,0,20,3.329,19,0,FALSE,9
7,1,1,32,2.61,22,1,FALSE,10
7,0,0,31,2.881,22,1,FALSE,11
7,0,0,15,2.825,19,1,FALSE,12
7,1,1,22,2.633,16,1,FALSE,13
7,1,1,37,3.753,13,1,FALSE,14
7,1,0,27,3.937,10,0,FALSE,15
7,0,0,30,2.633,13,1,FALSE,16
7,0,1,14,3.273,13,0,FALSE,17
7,0,0,23,2.49,16,1,FALSE,18
7,1,0,38,2.809,16,0,FALSE,19
7,0,0,47,2.697,19,1,FALSE,20
7,0,0,45,2.706,19,1,FALSE,21
7,1,1,23,3.273,16,1,FALSE,22
7,0,0,17,2.465,13,1,FALSE,23
7,1,0,21,2.586,10,0,FALSE,24
7,0,0,24,2.064,13,1,FALSE,25
7,0,0,36,3.257,13,1,FALSE,26
7,1,1,30,3.561,10,1,FALSE,27
7,0,1,32,3.224,7,0,FALSE,28
7,0,0,33,2.537,10,1,FALSE,29
7,0,1,34,2.369,10,0,FALSE,30
7,1,0,41,5.906,13,0,FALSE,31
7,1,1,35,2.833,16,1,FALSE,32
7,1,0,23,2.208,16,0,FALSE,33
7,0,1,26,3.728,19,0,FALSE,34
7,1,1,31,5.361,22,1,FALSE,35
7,1,1,40,2.249,22,1,FALSE,36
7,1,1,50,3.809,19,1,FALSE,37
7,0,0,35,2.225,16,1,FALSE,38
7,0,0,43,2.625,13,1,FALSE,39
7,1,1,25,2.752,10,1,FALSE,40
7,0,0,14,2.425,7,1,FALSE,41
7,1,0,31,2.915,4,0,FALSE,42
7,0,1,21,2.721,7,0,FALSE,43
7,0,1,25,5.497,10,0,FALSE,44
7,0,0,10,2.713,13,1,FALSE,45
7,1,1,20,2.785,13,1,FALSE,46
7,1,1,28,8.464,10,1,FALSE,47
7,1,0,18,2.345,7,0,FALSE,48
7,0,0,18,2.697,10,1,FALSE,49
7,1,1,25,2.122,10,1,FALSE,50
7,1,1,33,2.561,7,1,FALSE,51
7,0,0,15,2.561,4,1,FALSE,52
7,0,1,18,4.113,1,0,FALSE,53
7,1,0,20,2.129,4,0,FALSE,54
7,1,0,19,1.97,7,0,FALSE,55
7,1,1,13,2.305,10,1,FALSE,56
7,0,1,25,2.826,10,0,FALSE,57
7,1,0,18,3.904,13,0,FALSE,58
7,0,1,13,2.618,16,0,FALSE,59
7,1,0,20,2.16,19,0,FALSE,1
7,0,0,45,3.008,22,1,FALSE,2
7,1,1,14,2.393,22,1,FALSE,3
7,1,1,29,2.514,19,1,FALSE,4
7,1,1,37,3.121,16,1,FALSE,5
7,1,0,18,2.617,13,0,FALSE,6
7,0,1,17,2.273,16,0,FALSE,7
7,1,1,22,2.714,19,1,FALSE,8
7,1,1,24,2.905,19,1,FALSE,9
7,1,1,29,2.241,16,1,FALSE,10
7,0,1,24,4.209,13,0,FALSE,11
7,1,0,27,2.401,16,0,FALSE,12
7,1,1,18,2.089,19,1,FALSE,13
7,1,1,25,2.497,19,1,FALSE,14
7,0,0,19,9.682,16,1,FALSE,15
7,0,1,7,3.441,13,0,FALSE,16
7,0,1,14,2.977,16,0,FALSE,17
7,1,1,16,3.512,19,1,FALSE,18
7,1,1,9,4.408,19,1,FALSE,19
7,0,0,23,8.105,16,1,FALSE,20
7,1,0,28,2.105,13,0,FALSE,21
7,0,0,21,2.305,16,1,FALSE,22
7,1,1,13,2.241,16,1,FALSE,23
7,1,1,21,2.314,13,1,FALSE,24
7,1,0,9,3.233,10,0,FALSE,25
7,1,1,16,2.432,13,1,FALSE,26
7,0,0,11,2.121,13,1,FALSE,27
7,0,1,21,2.297,10,0,FALSE,28
7,0,0,8,2.01,13,1,FALSE,29
7,0,1,17,3.089,13,0,FALSE,30
7,1,1,13,2.425,16,1,FALSE,31
7,1,1,5,3.753,16,1,FALSE,32
7,0,1,15,2.193,13,0,FALSE,33
7,1,0,24,3.792,16,0,FALSE,34
7,1,1,17,2.321,19,1,FALSE,35
7,1,1,18,3.001,19,1,FALSE,36
7,1,1,14,2.929,16,1,FALSE,37
7,0,1,28,7.112,13,0,FALSE,38
7,0,1,17,2.618,16,0,FALSE,39
7,1,0,10,2.193,19,0,FALSE,40
7,0,1,9,2.161,22,0,FALSE,41
7,1,1,13,1.864,25,1,FALSE,42
7,0,0,13,2.193,25,1,FALSE,43
7,1,1,16,1.985,22,1,FALSE,44
7,0,1,26,3.049,19,0,FALSE,45
7,0,1,18,4.233,22,0,FALSE,46
7,0,0,11,2.593,25,1,FALSE,47
7,0,0,16,3.304,25,1,FALSE,48
7,1,1,17,4.817,22,1,FALSE,49
7,0,0,13,2.343,19,1,FALSE,50
7,1,0,18,2.858,16,0,FALSE,51
7,0,1,7,6.343,19,0,FALSE,52
7,0,0,13,3.705,22,1,FALSE,53
7,1,1,8,3.254,22,1,FALSE,54
7,1,1,19,4.017,19,1,FALSE,55
7,0,1,13,2.994,16,0,FALSE,56
7,1,1,18,2.402,19,1,FALSE,57
7,1,1,8,7.039,19,1,FALSE,58
7,1,0,6,2.217,16,0,FALSE,59
7,1,1,11,3.225,19,1,FALSE,60
8,1,0,46,4.32939999993,18,0,FALSE,1
8,1,1,49,4.38049999997002,21,1,FALSE,2
8,1,0,49,5.70530000003002,18,0,FALSE,3
8,0,0,49,3.59940000019001,21,1,FALSE,4
8,0,0,49,3.82150000008004,18,1,FALSE,5
8,0,0,49,4.31480000004999,15,1,FALSE,6
8,1,1,50,2.89480000012997,12,1,FALSE,7
8,1,1,49,3.16519999992999,12,1,FALSE,8
8,0,0,49,3.20569999982003,12,1,FALSE,9
8,1,1,50,2.76480000001,9,1,FALSE,10
8,0,1,50,2.9495000001,9,0,FALSE,11
8,1,1,50,3.67339999996999,12,1,FALSE,12
8,0,0,50,2.53269999987003,6,1,FALSE,13
8,0,1,50,2.54920000000997,3,0,FALSE,14
8,1,1,49,2.90460000000999,6,1,FALSE,15
8,0,1,48,2.98349999985995,1,0,FALSE,16
8,1,1,50,2.63139999983995,7,1,FALSE,17
8,0,0,49,17.6912000000001,1,1,FALSE,18
8,0,0,49,2.96839999989001,1,1,FALSE,19
8,0,0,49,3.15259999992,1,1,FALSE,20
8,1,1,50,2.94139999989001,1,1,FALSE,21
8,0,1,50,3.22519999999006,1,0,FALSE,22
8,0,0,49,2.75010000007006,4,1,FALSE,23
8,0,0,50,3.19420000002999,4,1,FALSE,24
8,0,1,50,2.95579999988002,7,0,FALSE,25
8,0,0,49,2.79719999990996,10,1,FALSE,26
8,0,1,49,3.3350000002,4,0,FALSE,1
8,1,0,50,2.94650000007998,7,0,FALSE,2
8,0,0,50,3.61749999994005,10,1,FALSE,3
8,1,1,37,6.027,10,1,FALSE,4
8,1,1,49,2.95230000001006,10,1,FALSE,5
8,0,1,49,2.90609999978996,4,0,FALSE,6
8,0,1,47,3.08639999992005,7,0,FALSE,7
8,1,1,50,3.37020000000007,10,1,FALSE,8
8,1,0,50,2.73589999990002,7,0,FALSE,9
8,1,0,50,2.91020000010007,4,0,FALSE,10
8,1,1,50,2.71510000000009,7,1,FALSE,11
8,1,0,50,2.72480000000005,4,0,FALSE,12
8,1,1,50,5.3150000002,7,1,FALSE,13
8,1,0,50,3.04419999979995,7,0,FALSE,14
8,0,0,50,4.82440000000014,10,1,FALSE,15
8,1,0,50,3.10169999999995,10,0,FALSE,16
8,0,0,50,2.81210000000009,7,1,FALSE,17
8,1,0,50,3.9785,4,0,FALSE,18
8,1,1,48,2.92619999979995,7,1,FALSE,19
8,0,1,49,3.11780000009993,7,0,FALSE,20
8,1,0,50,2.966,10,0,FALSE,21
8,0,0,50,4.43630000009993,13,1,FALSE,22
8,1,1,49,2.76669999979995,10,1,FALSE,23
8,1,1,49,2.85369999989984,7,1,FALSE,24
8,0,0,49,2.78680000009993,4,1,FALSE,25
8,0,0,50,3.37419999990007,1,1,FALSE,26
8,1,1,49,2.87840000010002,1,1,FALSE,27
8,0,0,50,3.07880000000005,1,1,FALSE,28
8,0,0,49,2.88830000000005,1,1,FALSE,29
8,1,1,47,4.1735,1,1,FALSE,30
8,1,1,50,2.90229999990016,1,1,FALSE,31
8,1,1,48,2.85829999989993,1,1,FALSE,32
8,0,0,50,3.43510000009998,1,1,FALSE,33
8,0,0,50,2.99680000000005,10,1,FALSE,34
8,1,0,48,4.80209999999986,7,0,FALSE,1
8,1,1,48,2.96210000009998,10,1,FALSE,2
8,1,0,49,3.73359999989998,10,0,FALSE,3
8,0,1,46,3.31910000000009,13,0,FALSE,4
8,0,0,48,2.64220000009984,16,1,FALSE,5
8,1,1,42,2.92980000000005,16,1,FALSE,6
8,0,0,50,2.77709999980009,13,1,FALSE,7
8,1,0,50,2.854,10,0,FALSE,8
8,1,1,49,3.08989999999991,13,1,FALSE,9
8,1,0,49,3.11490000000014,10,0,FALSE,10
8,1,1,45,2.81319999999995,13,1,FALSE,11
8,0,0,50,2.70330000000005,16,1,FALSE,12
8,1,1,50,2.66749999989988,13,1,FALSE,13
8,1,0,49,3.58269999990007,10,0,FALSE,14
8,1,0,50,2.96910000009998,7,0,FALSE,15
8,0,1,49,3.36269999999995,16,0,FALSE,16
8,0,0,49,2.75619999989984,16,1,FALSE,17
8,1,0,50,3.39780000000005,13,0,FALSE,18
8,1,0,49,2.86670000019995,16,0,FALSE,19
8,0,1,48,4.35730000000005,19,0,FALSE,20
8,1,1,49,3.43009999999986,22,1,FALSE,21
8,1,1,49,2.65630000009993,22,1,FALSE,22
8,1,1,50,3.33760000000009,19,1,FALSE,23
8,0,0,49,4.31280000000005,13,1,FALSE,24
8,1,0,48,3.21989999990002,10,0,FALSE,25
8,1,1,49,3.01679999990016,13,1,FALSE,26
8,0,0,50,2.76139999990002,13,1,FALSE,27
8,1,1,49,2.63060000009998,7,1,FALSE,28
8,0,0,50,2.85169999999995,4,1,FALSE,29
8,1,1,49,3.14839999999991,1,1,FALSE,30
8,1,0,47,5.26559999999986,1,0,FALSE,31
8,1,0,48,2.78940000010002,7,0,FALSE,32
8,0,0,49,3.05939999990002,10,1,FALSE,33
8,1,0,50,4.62910000000009,4,0,FALSE,1
8,0,0,49,3.13630000020005,4,1,FALSE,2
8,1,0,49,3.26039999999991,1,0,FALSE,3
8,1,0,50,3.33200000000023,7,0,FALSE,4
8,0,0,50,2.7185,10,1,FALSE,5
8,0,0,48,2.80899999989988,7,1,FALSE,6
8,1,0,49,2.73380000009993,4,0,FALSE,7
8,1,1,49,2.99950000010012,7,1,FALSE,8
8,0,0,50,2.64330000009993,4,1,FALSE,9
8,1,0,50,2.75489999999991,1,0,FALSE,10
8,0,1,49,3.98670000009984,4,0,FALSE,11
8,1,1,50,3.16219999990007,7,1,FALSE,12
8,1,0,48,2.73350000009965,7,0,FALSE,13
8,0,0,50,3.26059999989998,7,1,FALSE,14
8,1,1,50,3.82039999990026,7,1,FALSE,15
8,1,1,48,2.57460000010021,10,1,FALSE,16
8,1,0,49,2.98059999989998,4,0,FALSE,17
8,0,0,49,3.08450000010012,7,1,FALSE,18
8,1,1,46,2.6775,4,1,FALSE,19
8,0,0,49,2.74509999989998,1,1,FALSE,20
8,0,0,50,2.83720000009984,1,1,FALSE,21
8,1,1,49,3.037,1,1,FALSE,22
8,1,1,50,3.09399999989988,1,1,FALSE,23
8,0,1,49,3.16269999990007,1,0,FALSE,24
8,0,0,50,2.67549999989988,7,1,FALSE,25
8,1,1,49,3.03340000010002,4,1,FALSE,26
8,1,1,49,2.71950000010012,1,1,FALSE,27
8,0,0,49,3.28879999999981,1,1,FALSE,28
8,0,1,50,2.85850000009965,1,0,FALSE,29
8,0,1,49,3.19260000000009,4,0,FALSE,30
8,1,1,50,3.33920000009984,7,1,FALSE,31
9,1,1,45,2.64699999988999,27,1,FALSE,1
9,0,1,44,2.89080000017001,24,0,FALSE,2
9,0,0,38,3.05820000008002,27,1,FALSE,3
9,0,1,44,2.51059999992,27,0,FALSE,4
9,1,1,43,2.15690000005998,30,1,FALSE,5
9,0,0,41,2.02299999981001,30,1,FALSE,6
9,0,0,40,2.02769999998005,27,1,FALSE,7
9,0,0,41,2.09890000010002,24,1,FALSE,8
9,1,0,35,3.42419999977999,21,0,FALSE,9
9,1,1,41,2.02429999992996,24,1,FALSE,10
9,0,0,37,2.31209999998001,24,1,FALSE,11
9,0,0,41,2.49529999983002,21,1,FALSE,12
9,0,0,43,2.01010000007,18,1,FALSE,13
9,1,1,43,2.38150000013999,15,1,FALSE,14
9,1,0,41,2.01480000001,12,0,FALSE,15
9,0,1,36,3.01679999987001,15,0,FALSE,16
9,1,0,39,2.57550000003003,18,0,FALSE,17
9,1,1,49,2.52010000008001,21,1,FALSE,18
9,0,0,41,3.40670000016998,21,1,FALSE,19
9,1,1,49,2.17229999996995,18,1,FALSE,20
9,1,1,43,2.27619999997003,15,1,FALSE,21
9,0,1,42,2.13770000008005,12,0,FALSE,22
9,1,1,40,2.054,15,1,FALSE,23
9,0,0,39,2.26329999999999,15,1,FALSE,24
9,1,1,41,1.84499999997002,12,1,FALSE,25
9,0,1,45,2.45860000002,9,0,FALSE,26
9,1,1,44,2.17209999984998,12,1,FALSE,27
9,0,1,44,1.85320000000997,12,0,FALSE,28
9,0,0,43,2.71189999999996,15,1,FALSE,29
9,0,1,41,1.88859999994002,15,0,FALSE,30
9,0,0,43,2.08759999997,18,1,FALSE,31
9,1,1,44,2.03090000013,18,1,FALSE,32
9,0,0,40,2.04670000006002,15,1,FALSE,33
9,0,1,43,1.62879999983002,12,0,FALSE,34
9,0,0,42,1.77389999992005,15,1,FALSE,35
9,1,1,41,1.91159999999002,15,1,FALSE,36
9,1,1,42,1.89779999991,12,1,FALSE,37
9,1,1,44,2.00500000011997,9,1,FALSE,38
9,1,1,44,1.82279999997001,6,1,FALSE,39
9,1,1,41,2.14020000002999,3,1,FALSE,40
9,0,1,44,1.91059999983001,1,0,FALSE,41
9,0,0,39,1.90289999986999,4,1,FALSE,42
9,1,0,43,2.42880000010994,4,0,FALSE,43
9,1,1,35,2.34470000001998,7,1,FALSE,44
9,1,1,40,1.66090000001993,7,1,FALSE,45
9,0,1,39,2.38870000001008,4,0,FALSE,46
9,0,1,43,2.35750000014994,7,0,FALSE,47
9,1,1,40,1.70999999995995,10,1,FALSE,48
9,1,1,41,1.70360000012,10,1,FALSE,49
9,0,0,37,1.96570000006002,7,1,FALSE,50
9,0,1,34,1.91570000001998,4,0,FALSE,51
9,0,0,35,1.79080000007001,7,1,FALSE,52
9,0,0,38,1.93320000007993,7,1,FALSE,53
9,1,0,40,1.74020000011008,4,0,FALSE,54
9,1,1,38,1.65880000009004,7,1,FALSE,55
9,1,1,42,1.61179999983998,7,1,FALSE,56
9,1,0,36,2.00369999999995,4,0,FALSE,57
9,0,1,38,1.57270000012999,7,0,FALSE,58
9,1,0,38,1.68959999993001,10,0,FALSE,59
9,1,0,41,2.03040000003995,13,0,FALSE,60
9,0,0,33,1.59049999993003,16,1,FALSE,1
9,1,1,39,1.89259999990009,16,1,FALSE,2
9,1,1,35,2.81569999991998,13,1,FALSE,3
9,0,1,29,3.07799999997998,10,0,FALSE,4
9,0,0,40,1.98170000011998,13,1,FALSE,5
9,0,1,32,1.77209999995003,13,0,FALSE,6
9,1,1,34,1.66240000003006,16,1,FALSE,7
9,1,1,30,1.96430000011006,16,1,FALSE,8
9,1,1,38,1.70849999995006,13,1,FALSE,9
9,1,1,26,1.94370000017993,10,1,FALSE,10
9,0,1,36,1.84470000002009,7,0,FALSE,11
9,0,0,34,1.65700000012002,10,1,FALSE,12
9,1,1,46,1.93430000008002,10,1,FALSE,13
9,0,1,38,2.01560000003991,7,0,FALSE,14
9,0,0,36,1.67519999994,10,1,FALSE,15
9,0,0,40,1.98279999989003,10,1,FALSE,16
9,0,1,40,1.51340000004997,7,0,FALSE,17
9,1,1,34,1.63999999988999,10,1,FALSE,18
9,0,0,39,1.68969999998994,10,1,FALSE,19
9,1,1,42,1.72080000000994,7,1,FALSE,20
9,0,0,38,1.73319999989995,4,1,FALSE,21
9,1,1,34,1.94180000013998,1,1,FALSE,22
9,0,0,37,2.03270000009995,1,1,FALSE,23
9,1,1,41,1.72149999998999,1,1,FALSE,24
9,1,0,33,1.517,1,0,FALSE,25
9,1,0,40,1.74769999995001,4,0,FALSE,26
9,1,1,34,1.69919999991998,7,1,FALSE,27
9,1,1,33,1.65189999994007,7,1,FALSE,28
9,0,1,33,2.40610000002,4,0,FALSE,29
9,0,0,39,1.65720000001998,7,1,FALSE,30
9,0,1,31,1.74979999987001,7,0,FALSE,31
9,1,1,49,1.94169999985001,10,1,FALSE,32
9,1,1,20,2.33440000004997,7,1,FALSE,33
9,0,1,29,2.36550000006997,4,0,FALSE,34
9,1,0,32,2.01050000008999,7,0,FALSE,35
9,0,0,49,1.86690000001993,10,1,FALSE,36
9,0,0,42,1.77270000008994,10,1,FALSE,37
9,1,1,46,1.84330000007001,7,1,FALSE,38
9,0,1,42,1.51669999979995,4,0,FALSE,39
9,0,0,32,1.9524999999,7,1,FALSE,40
9,1,1,37,1.66610000003001,7,1,FALSE,41
9,1,1,49,2.14230000018992,4,1,FALSE,42
9,0,1,29,1.93980000006,1,0,FALSE,43
9,1,1,29,1.82810000004002,4,1,FALSE,44
9,0,0,32,1.63669999990996,4,1,FALSE,45
9,0,0,30,1.63009999995003,1,1,FALSE,46
9,0,1,22,1.74700000019989,1,0,FALSE,47
9,1,0,32,1.77229999984009,4,0,FALSE,48
9,0,1,26,2.02279999991995,7,0,FALSE,49
9,0,0,27,1.80340000009001,10,1,FALSE,50
9,0,1,24,1.58759999996994,10,0,FALSE,51
9,1,1,36,1.56269999988994,13,1,FALSE,52
9,1,1,19,1.70189999998,13,1,FALSE,53
9,0,0,28,1.62039999989991,10,1,FALSE,54
9,0,1,31,1.54709999979998,7,0,FALSE,55
9,0,0,25,1.61290000009991,10,1,FALSE,56
9,0,0,33,1.63159999999998,10,1,FALSE,57
9,0,1,22,1.69380000000005,7,0,FALSE,58
9,0,1,30,1.899,10,0,FALSE,59
9,0,0,35,1.8925,13,1,FALSE,1
9,0,1,32,1.67699999989988,13,0,FALSE,2
9,1,1,28,1.64570000000019,16,1,FALSE,3
9,0,0,29,1.79660000000009,16,1,FALSE,4
9,0,1,48,2.10160000020009,13,0,FALSE,5
9,0,0,37,1.76539999990002,16,1,FALSE,6
9,1,1,33,1.57239999999991,16,1,FALSE,7
9,1,1,32,1.47620000019995,13,1,FALSE,8
9,1,1,29,1.67489999999991,10,1,FALSE,9
9,1,1,16,2.18180000020005,7,1,FALSE,10
9,1,1,30,1.58940000019991,4,1,FALSE,11
9,0,1,28,1.62819999999995,1,0,FALSE,12
9,1,1,25,1.72570000010007,4,1,FALSE,13
9,1,1,26,1.47729999990016,4,1,FALSE,14
9,0,1,27,1.68580000009993,1,0,FALSE,15
9,0,1,21,2.46320000010007,4,0,FALSE,16
9,0,1,31,1.46730000009993,7,0,FALSE,17
9,1,1,30,1.50219999999995,10,1,FALSE,18
9,1,1,33,1.54139999999991,10,1,FALSE,19
9,1,1,33,1.77989999999991,7,1,FALSE,20
9,1,1,30,1.67650000010012,4,1,FALSE,21
9,1,1,24,2.021,1,1,FALSE,22
9,0,1,20,1.90979999999981,1,0,FALSE,23
9,1,1,26,2.05349999990012,4,1,FALSE,24
9,1,1,34,1.55619999999995,4,1,FALSE,25
9,1,1,23,3.43869999999995,1,1,FALSE,26
9,1,1,30,1.57110000009998,1,1,FALSE,27
9,0,0,25,2.10100000010012,1,1,FALSE,28
9,1,1,24,1.56330000000005,1,1,FALSE,29
9,1,1,31,1.63689999999991,1,1,FALSE,30
9,1,0,30,1.85280000000005,1,0,FALSE,31
9,1,1,26,1.9175,4,1,FALSE,32
9,0,1,25,1.77430000000005,4,0,FALSE,33
9,0,1,26,1.40390000010002,7,0,FALSE,34
9,1,1,33,1.48479999990016,10,1,FALSE,35
9,0,0,38,1.71530000000005,10,1,FALSE,36
9,1,0,39,1.98189999999991,7,0,FALSE,37
9,0,0,29,2.02179999999981,10,1,FALSE,38
9,1,1,32,1.89399999990012,10,1,FALSE,39
9,0,0,26,1.62070000010007,7,1,FALSE,40
9,0,1,22,1.62870000000019,4,0,FALSE,41
9,0,0,26,2.08400000010012,7,1,FALSE,42
9,1,1,34,1.63060000009998,7,1,FALSE,43
9,1,1,32,1.60590000010002,4,1,FALSE,44
9,1,1,37,1.93969999999995,1,1,FALSE,45
9,0,1,32,1.65180000010016,1,0,FALSE,46
9,1,1,32,1.51839999990002,4,1,FALSE,47
9,1,1,26,1.90400000009988,4,1,FALSE,48
9,0,1,25,1.93989999990002,1,0,FALSE,49
9,0,1,24,2.06280000000005,4,0,FALSE,50
9,1,1,32,1.71799999989988,7,1,FALSE,51
9,1,1,27,1.43559999989998,7,1,FALSE,52
9,1,1,27,1.926,4,1,FALSE,53
9,1,0,29,2.07689999999991,1,0,FALSE,54
9,1,1,19,1.72539999990002,4,1,FALSE,55
9,0,1,29,2.08380000000005,4,0,FALSE,56
9,0,1,25,1.47730000009993,7,0,FALSE,57
9,1,1,21,1.52390000020014,10,1,FALSE,58
9,1,1,16,1.87060000000009,10,1,FALSE,59
9,0,1,17,1.49379999980005,7,0,FALSE,60
9,0,0,23,1.84290000010002,10,1,FALSE,1
9,0,1,16,1.57090000019991,10,0,FALSE,2
9,0,1,20,1.68340000000014,13,0,FALSE,3
9,1,1,28,1.69079999999981,16,1,FALSE,4
9,1,1,35,1.52909999989998,16,1,FALSE,5
9,0,1,36,1.62299999990012,13,0,FALSE,6
9,1,1,22,1.50280000009993,16,1,FALSE,7
9,0,0,29,1.6905,16,1,FALSE,8
9,1,1,17,2.34819999989984,13,1,FALSE,9
9,0,1,23,1.60360000000009,10,0,FALSE,10
9,0,0,23,1.50039999999991,13,1,FALSE,11
9,1,1,39,1.54879999999981,13,1,FALSE,12
9,1,1,39,1.74310000010021,10,1,FALSE,13
9,0,1,29,1.54959999999986,7,0,FALSE,14
9,1,1,28,1.31459999999986,10,1,FALSE,15
9,1,1,26,1.56559999989998,10,1,FALSE,16
9,1,1,32,1.74580000019982,7,1,FALSE,17
9,1,1,36,1.65669999990007,4,1,FALSE,18
9,0,1,33,1.54869999990007,1,0,FALSE,19
9,1,1,31,1.51270000010007,4,1,FALSE,20
9,1,0,30,1.78799999989988,4,0,FALSE,21
9,1,1,25,1.66770000010007,7,1,FALSE,22
9,0,0,29,1.614,7,1,FALSE,23
9,1,1,38,1.66259999990021,4,1,FALSE,24
9,1,1,34,1.6849999998,1,1,FALSE,25
9,1,1,28,2.54960000009998,1,1,FALSE,26
9,0,1,24,1.64569999999995,1,0,FALSE,27
9,0,1,27,1.45129999980005,4,0,FALSE,28
9,1,1,20,1.65409999999986,7,1,FALSE,29
9,1,1,32,1.44570000010007,7,1,FALSE,30
9,1,1,22,1.62089999990002,4,1,FALSE,31
9,1,1,23,1.45839999990002,1,1,FALSE,32
9,1,0,31,1.7504999998,1,0,FALSE,33
9,0,0,31,1.629,4,1,FALSE,34
9,1,1,30,1.41620000010007,4,1,FALSE,35
9,0,0,34,1.49029999999981,1,1,FALSE,36
9,1,0,28,1.78160000009998,1,0,FALSE,37
9,0,1,30,1.70740000000014,4,0,FALSE,38
9,0,0,36,1.85290000010002,7,1,FALSE,39
9,1,0,29,1.94839999990002,7,0,FALSE,40
9,0,0,39,1.4915,10,1,FALSE,41
9,0,1,25,1.39620000010007,10,0,FALSE,42
9,0,1,10,1.74109999999986,13,0,FALSE,43
9,0,0,37,1.47539999979991,16,1,FALSE,44
9,1,0,31,1.51529999980005,16,0,FALSE,45
9,1,1,32,2.06770000000019,19,1,FALSE,46
9,1,1,36,2.47800000010012,19,1,FALSE,47
9,0,0,30,1.91789999999991,16,1,FALSE,48
9,1,1,30,1.37760000000009,13,1,FALSE,49
9,0,0,37,1.54820000000019,10,1,FALSE,50
9,1,0,38,1.92549999990012,7,0,FALSE,51
9,1,1,28,1.47039999999991,10,1,FALSE,52
9,1,1,16,2.15859999999986,10,1,FALSE,53
9,0,0,37,1.4309999998,7,1,FALSE,54
9,1,1,34,1.97339999999991,4,1,FALSE,55
9,1,0,37,1.3395,1,0,FALSE,56
9,1,0,35,1.64550000009988,4,0,FALSE,57
9,0,1,40,1.925,7,0,FALSE,58
9,1,1,46,1.86859999989998,10,1,FALSE,59
9,0,0,44,1.66820000000019,10,1,FALSE,60
10,0,0,47,3.32029999991,24,1,FALSE,1
10,0,0,47,2.79050000001001,24,1,FALSE,2
10,0,0,49,2.47409999998999,21,1,FALSE,3
10,1,0,49,2.87960000009998,18,0,FALSE,4
10,0,0,35,3.42339999996999,21,1,FALSE,5
10,1,1,24,3.36159999993999,21,1,FALSE,6
10,0,0,49,3.049,18,1,FALSE,7
10,0,0,41,4.51040000003,15,1,FALSE,8
10,1,1,35,2.58059999997998,12,1,FALSE,9
10,0,1,37,2.22450000001001,9,0,FALSE,10
10,0,1,43,2.34469999989998,12,0,FALSE,11
10,0,0,45,2.40020000004,15,1,FALSE,12
10,0,1,32,3.39960000000001,15,0,FALSE,13
10,0,0,48,2.43259999995001,18,1,FALSE,14
10,1,0,49,2.18319999996998,18,0,FALSE,15
10,1,0,48,2.24820000003002,21,0,FALSE,16
10,1,1,38,4.73459999997,24,1,FALSE,17
10,1,0,45,2.34210000000999,24,0,FALSE,18
10,1,1,34,2.92079999997001,27,1,FALSE,19
10,0,0,42,3.05290000000998,27,1,FALSE,20
10,1,0,49,3.37740000000002,24,0,FALSE,21
10,1,0,46,2.06420000001998,27,0,FALSE,22
10,0,0,46,2.75890000001004,30,1,FALSE,23
10,1,1,39,5.24919999996002,30,1,FALSE,24
10,0,1,42,3.14989999996003,27,0,FALSE,25
10,1,1,37,3.68790000001999,30,1,FALSE,26
10,0,0,41,2.33429999998998,30,1,FALSE,27
10,0,0,49,2.26309999998001,27,1,FALSE,28
10,1,1,37,6.75210000003997,24,1,FALSE,29
10,0,0,43,3.64720000000997,21,1,FALSE,30
10,1,1,36,4.50350000011001,18,1,FALSE,31
10,1,1,45,2.24679999997001,15,1,FALSE,32
10,0,0,46,2.42460000003001,12,1,FALSE,33
10,1,0,45,1.95829999993998,9,0,FALSE,34
10,0,0,39,3.69370000006002,12,1,FALSE,35
10,1,0,47,2.87109999998997,12,0,FALSE,36
10,0,0,48,1.9985000001,15,1,FALSE,37
10,0,0,47,2.34550000005,15,1,FALSE,38
10,1,1,45,2.48849999998003,12,1,FALSE,39
10,1,0,49,2.88969999994,9,0,FALSE,40
10,0,0,48,2.15240000001999,12,1,FALSE,41
10,1,0,47,1.99250000005,12,0,FALSE,42
10,1,0,50,2.80749999998999,15,0,FALSE,43
10,1,1,46,2.63169999990996,18,1,FALSE,44
10,1,1,46,2.30379999999999,18,1,FALSE,45
10,1,0,47,2.15330000000005,15,0,FALSE,46
10,1,0,46,2.41460000002,18,0,FALSE,47
10,0,0,50,2.19750000001001,21,1,FALSE,48
10,0,0,48,2.60840000003,21,1,FALSE,49
10,0,0,49,3.09749999991001,18,1,FALSE,50
10,0,1,48,2.54559999994998,15,0,FALSE,51
10,1,1,47,3.19940000004001,18,1,FALSE,52
10,0,0,48,4.84210000001005,18,1,FALSE,53
10,1,0,48,2.60009999992,15,0,FALSE,54
10,0,0,49,2.08490000001999,18,1,FALSE,55
10,0,0,48,2.16890000005002,18,1,FALSE,56
10,0,0,45,2.1121000000299,15,1,FALSE,57
10,1,1,44,2.29559999995993,12,1,FALSE,58
10,1,1,47,2.28700000001991,9,1,FALSE,59
10,0,0,48,2.85600000002992,6,1,FALSE,60
10,0,0,49,2.20220000006002,3,1,FALSE,1
10,0,0,49,2.62470000004,1,1,FALSE,2
10,1,0,47,2.23670000000997,1,0,FALSE,3
10,1,1,43,2.90410000004002,4,1,FALSE,4
10,0,1,47,2.27989999995998,4,0,FALSE,5
10,0,1,46,2.67949999996996,7,0,FALSE,6
10,1,0,48,2.13569999998005,10,0,FALSE,7
10,0,0,48,2.24080000003008,13,1,FALSE,8
10,0,1,47,2.71230000000994,13,0,FALSE,9
10,1,1,47,3.15920000000007,16,1,FALSE,10
10,1,0,50,3.04150000005006,16,0,FALSE,11
10,0,0,49,2.19880000001995,19,1,FALSE,12
10,1,0,49,2.87270000006002,19,0,FALSE,13
10,1,1,47,2.70520000007993,22,1,FALSE,14
10,0,0,47,1.86459999997006,22,1,FALSE,15
10,0,0,47,3.62229999992996,19,1,FALSE,16
10,0,1,43,2.35780000000005,16,0,FALSE,17
10,1,0,47,2.10389999999001,19,0,FALSE,18
10,1,1,44,2.72669999999995,22,1,FALSE,19
10,0,1,45,2.15179999998992,22,0,FALSE,20
10,0,0,47,2.52049999998999,25,1,FALSE,21
10,0,0,47,1.72970000001998,25,1,FALSE,22
10,0,0,47,2.16029999999003,22,1,FALSE,23
10,0,0,46,2.65620000008994,19,1,FALSE,24
10,0,0,46,2.06669999996992,16,1,FALSE,25
10,0,0,45,2.22979999997001,13,1,FALSE,26
10,0,0,46,2.37520000001008,10,1,FALSE,27
10,1,1,42,2.65450000006007,7,1,FALSE,28
10,0,0,46,2.43189999996009,4,1,FALSE,29
10,0,1,43,2.67099999996996,1,0,FALSE,30
10,0,1,47,2.74469999991998,4,0,FALSE,31
10,1,1,47,3.00359999993001,7,1,FALSE,32
10,1,1,48,2.24180000007001,7,1,FALSE,33
10,1,0,45,2.47120000002999,4,0,FALSE,34
10,0,0,47,2.21770000002999,7,1,FALSE,35
10,1,1,48,2.18370000005001,7,1,FALSE,36
10,0,1,49,2.41359999997006,4,0,FALSE,37
10,0,1,50,2.59100000001001,7,0,FALSE,38
10,0,1,49,2.66449999995006,10,0,FALSE,39
10,1,1,47,2.62509999995003,13,1,FALSE,40
10,0,1,46,4.54509999998997,13,0,FALSE,41
10,0,0,47,2.00750000006997,16,1,FALSE,42
10,1,1,48,3.19299999997998,16,1,FALSE,43
10,0,0,48,2.07759999996005,13,1,FALSE,44
10,0,1,50,2.53570000000997,10,0,FALSE,45
10,0,0,46,2.80739999992994,13,1,FALSE,46
10,0,0,48,2.11929999990005,13,1,FALSE,47
10,0,0,46,4.20889999996999,10,1,FALSE,48
10,0,0,43,2.11140000004997,7,1,FALSE,49
10,0,0,45,1.93590000004007,4,1,FALSE,50
10,1,1,46,3.34470000001998,1,1,FALSE,51
10,0,1,47,2.53650000004005,1,0,FALSE,52
10,0,0,45,2.41590000001993,4,1,FALSE,53
10,1,1,46,2.07909999997995,4,1,FALSE,54
10,1,1,49,2.63959999998997,1,1,FALSE,55
10,1,1,45,2.27950000006997,1,1,FALSE,56
10,0,1,46,1.99309999999998,1,0,FALSE,57
10,0,0,49,2.68869999989995,4,1,FALSE,58
10,0,1,47,2.31329999989993,4,0,FALSE,59
10,1,1,43,3.7705,7,1,FALSE,60
10,1,0,37,4.50579999990016,7,0,FALSE,1
10,1,0,49,2.15999999990012,10,0,FALSE,2
10,1,0,46,2.41680000000005,13,0,FALSE,3
10,0,0,46,2.20930000000005,16,1,FALSE,4
10,0,0,45,1.95220000010007,16,1,FALSE,5
10,1,0,42,2.67140000000014,13,0,FALSE,6
10,1,1,48,1.90180000009993,16,1,FALSE,7
10,0,0,43,2.49680000009993,16,1,FALSE,8
10,0,0,46,2.45669999989984,13,1,FALSE,9
10,1,1,44,1.78369999989984,10,1,FALSE,10
10,0,0,47,1.95919999999995,7,1,FALSE,11
10,0,0,44,2.41479999999981,4,1,FALSE,12
10,1,0,50,2.61460000009998,1,0,FALSE,13
10,1,0,47,2.009,4,0,FALSE,14
10,0,0,48,1.83329999990016,7,1,FALSE,15
10,1,1,48,2.55539999990002,7,1,FALSE,16
10,0,0,46,2.77760000000009,4,1,FALSE,17
10,1,0,47,3.46500000009988,1,0,FALSE,18
10,1,0,44,2.63239999999991,4,0,FALSE,19
10,0,0,48,2.02949999990012,7,1,FALSE,20
10,0,0,48,1.87130000000005,7,1,FALSE,21
10,0,1,44,2.27179999989993,4,0,FALSE,22
10,0,0,49,2.24809999999986,7,1,FALSE,23
10,1,0,47,1.96790000010002,7,0,FALSE,24
10,1,0,47,1.888,10,0,FALSE,25
10,0,1,36,2.41540000009979,13,0,FALSE,26
10,1,0,48,2.3505,16,0,FALSE,27
10,1,0,48,2.21660000009998,19,0,FALSE,28
10,1,1,43,1.94349999989988,22,1,FALSE,29
10,1,1,46,3.20149999989988,22,1,FALSE,30
10,1,1,40,2.34360000009998,19,1,FALSE,31
10,1,1,46,2.78410000000009,16,1,FALSE,32
10,0,1,47,2.47210000000009,13,0,FALSE,33
10,0,0,46,2.04849999990012,16,1,FALSE,34
10,0,1,46,2.576,16,0,FALSE,35
10,0,0,48,2.26979999989993,19,1,FALSE,36
10,1,0,48,2.10109999989998,19,0,FALSE,37
10,1,1,46,4.43210000009998,22,1,FALSE,38
10,0,0,45,1.96910000000009,22,1,FALSE,39
10,1,0,46,1.98389999990002,19,0,FALSE,40
10,1,1,47,2.64679999989993,22,1,FALSE,41
10,0,1,48,5.84780000000005,22,0,FALSE,42
10,0,0,48,1.99780000000005,25,1,FALSE,43
10,1,1,49,1.95259999999986,25,1,FALSE,44
10,0,0,46,1.96040000009979,22,1,FALSE,45
10,0,1,48,2.34380000000005,19,0,FALSE,46
10,0,0,49,1.75219999999995,22,1,FALSE,47
10,0,0,20,3.40740000010002,22,1,FALSE,48
10,1,1,46,1.96550000010012,19,1,FALSE,49
10,1,1,49,2.07059999999986,16,1,FALSE,50
10,0,0,47,2.21559999999986,13,1,FALSE,51
10,0,0,49,1.98410000000009,10,1,FALSE,52
10,1,0,29,3.77570000000019,7,0,FALSE,53
10,1,0,46,2.05590000010002,10,0,FALSE,54
10,1,0,46,2.34629999999981,13,0,FALSE,55
10,1,0,46,2.18430000009993,16,0,FALSE,56
10,1,0,47,1.92890000009979,19,0,FALSE,57
10,0,0,47,2.43219999999995,22,1,FALSE,58
10,0,0,49,2.00790000000014,22,1,FALSE,59
10,1,1,47,2.02259999999986,19,1,FALSE,60
10,0,0,46,1.99209999989998,16,1,FALSE,1
10,0,0,47,1.92010000000009,13,1,FALSE,2
10,0,0,48,1.84700000010012,10,1,FALSE,3
10,1,1,41,2.12860000009998,7,1,FALSE,4
10,1,0,34,2.19240000000014,4,0,FALSE,5
10,1,0,42,2.72830000009993,7,0,FALSE,6
10,0,0,40,2.80800000009988,10,1,FALSE,7
10,0,0,46,1.83290000010002,10,1,FALSE,8
10,1,1,32,2.10379999989993,7,1,FALSE,9
10,1,0,45,1.91949999989988,4,0,FALSE,10
10,1,1,22,2.31960000009998,7,1,FALSE,11
10,1,1,43,1.84009999989998,7,1,FALSE,12
10,1,1,45,1.92860000009998,4,1,FALSE,13
10,0,1,43,2.09570000009984,1,0,FALSE,14
10,0,0,39,2.81020000009984,4,1,FALSE,15
10,1,0,39,1.99860000000009,4,0,FALSE,16
10,1,1,36,2.51280000000005,7,1,FALSE,17
10,1,0,36,1.75240000000014,7,0,FALSE,18
10,0,0,36,2.74970000009984,10,1,FALSE,19
10,0,1,37,2.32810000000009,10,0,FALSE,20
10,0,0,22,2.13560000000009,13,1,FALSE,21
10,1,0,46,1.79149999990012,13,0,FALSE,22
10,1,1,41,2.15870000009984,16,1,FALSE,23
10,0,0,44,2.16499999990012,16,1,FALSE,24
10,1,1,40,1.71940000010002,13,1,FALSE,25
10,1,0,37,1.8815,10,0,FALSE,26
10,0,0,36,2.16520000009984,13,1,FALSE,27
10,1,1,42,1.80109999989998,13,1,FALSE,28
10,0,0,41,1.63939999999991,10,1,FALSE,29
10,0,0,41,1.78410000009998,7,1,FALSE,30
10,0,1,41,1.8565,4,0,FALSE,31
10,0,0,48,2.14510000000009,7,1,FALSE,32
10,0,0,45,1.68850000009988,7,1,FALSE,33
10,1,1,33,1.68189999999991,4,1,FALSE,34
10,1,0,37,1.61680000009993,1,0,FALSE,35
10,0,0,43,1.67919999999995,4,1,FALSE,36
10,1,1,32,3.19110000000009,4,1,FALSE,37
10,1,0,37,2.16139999990002,1,0,FALSE,38
10,1,0,42,1.91230000010016,4,0,FALSE,39
10,0,0,39,1.75180000009993,7,1,FALSE,40
10,0,0,41,1.84519999999995,7,1,FALSE,41
10,1,1,41,2.44690000000014,4,1,FALSE,42
10,1,1,43,2.84029999989993,1,1,FALSE,43
10,0,0,40,2.0805,1,1,FALSE,44
10,0,1,37,3.24640000010002,1,0,FALSE,45
10,0,0,39,1.79130000009993,4,1,FALSE,46
10,0,1,37,2.21500000010012,4,0,FALSE,47
10,1,0,39,2.13470000000019,7,0,FALSE,48
10,0,0,41,1.94049999989988,10,1,FALSE,49
10,0,0,42,2.00029999990016,10,1,FALSE,50
10,0,0,39,1.83980000000005,7,1,FALSE,51
10,1,0,33,2.35910000000009,4,0,FALSE,52
10,0,0,42,1.67810000000009,7,1,FALSE,53
10,1,0,44,2.04869999999995,7,0,FALSE,54
10,0,1,38,1.674,10,0,FALSE,55
10,0,1,36,1.91129999990016,13,0,FALSE,56
10,0,0,37,1.81650000010012,16,1,FALSE,57
10,0,0,34,1.74330000000005,16,1,FALSE,58
10,0,0,38,1.96819999999995,13,1,FALSE,59
10,0,0,47,1.62420000010007,10,1,FALSE,60
11,0,1,19,4.54930000001003,24,0,FALSE,1
11,0,0,28,2.50079999997996,27,1,FALSE,2
11,0,0,19,2.48669999997999,24,1,FALSE,3
11,0,0,19,4.62460000000999,21,1,FALSE,4
11,1,1,29,2.98220000000001,18,1,FALSE,5
11,1,0,36,2.93600000001001,15,0,FALSE,6
11,0,1,28,2.66720000000001,18,0,FALSE,7
11,1,1,50,2.12790000002005,21,1,FALSE,8
11,0,1,20,2.94840000000002,24,0,FALSE,9
11,0,0,17,2.34710000000999,24,1,FALSE,10
11,0,1,27,2.47109999999998,21,0,FALSE,11
11,0,1,50,1.75589999999001,24,0,FALSE,12
11,0,1,22,2.57339999999001,27,0,FALSE,13
11,0,0,31,2.47320000000997,30,1,FALSE,14
11,0,0,19,2.05660000000999,24,1,FALSE,15
11,1,1,45,2.32089999999001,18,1,FALSE,16
11,0,1,46,2.33729999998002,15,0,FALSE,17
11,1,1,32,1.78479999998998,18,1,FALSE,18
11,1,1,27,2.08609999999002,18,1,FALSE,19
11,0,0,24,2.18920000002004,15,1,FALSE,20
11,1,1,50,1.86090000000002,12,1,FALSE,21
11,1,0,8,2.3375,9,0,FALSE,22
11,0,0,15,1.65530000001006,9,1,FALSE,23
11,1,0,19,1.41209999998997,6,0,FALSE,24
11,1,1,26,1.44340000002005,9,1,FALSE,25
11,1,1,30,1.84340000001004,9,1,FALSE,26
11,0,1,24,1.49290000001003,6,0,FALSE,27
11,0,0,20,1.91880000001006,9,1,FALSE,28
11,1,1,48,2.65480000001995,3,1,FALSE,29
11,0,0,25,2.527,1,1,FALSE,30
11,0,0,23,1.62539999999001,1,1,FALSE,31
11,1,0,22,1.66459999999008,4,0,FALSE,32
11,0,0,50,2.24660000000999,7,1,FALSE,33
11,1,1,32,2.22930000001006,4,1,FALSE,34
11,0,0,32,1.72529999998992,1,1,FALSE,35
11,1,1,27,1.97070000000997,1,1,FALSE,36
11,0,0,25,2.543,1,1,FALSE,37
11,0,0,15,1.63330000001995,4,1,FALSE,38
11,0,0,14,1.451,4,1,FALSE,39
11,0,1,20,1.60690000001004,1,0,FALSE,1
11,0,0,15,1.38979999999993,4,1,FALSE,2
11,1,1,23,1.7038999999899,4,1,FALSE,3
11,0,0,22,1.592,1,1,FALSE,4
11,0,0,20,1.60779999999993,1,1,FALSE,5
11,0,1,33,3.14619999998994,4,0,FALSE,6
11,1,0,24,1.695,7,0,FALSE,7
11,1,1,50,2.34740000000002,10,1,FALSE,8
11,0,1,32,2.32290000000002,10,0,FALSE,9
11,1,1,28,1.64190000001993,13,1,FALSE,10
11,0,0,50,1.58410000000999,13,1,FALSE,11
11,0,1,20,1.55430000001995,10,0,FALSE,12
11,0,1,26,1.53869999997993,13,0,FALSE,13
11,0,0,31,2.12489999999991,16,1,FALSE,14
11,0,1,50,1.75609999998996,13,0,FALSE,15
11,0,0,50,2.64440000001993,16,1,FALSE,16
11,1,1,25,7.54459999999998,13,1,FALSE,17
11,1,1,27,1.54370000000997,7,1,FALSE,18
11,0,1,24,1.66309999999998,1,0,FALSE,19
11,0,0,34,2.22359999999998,7,1,FALSE,20
11,1,1,26,1.91440000000992,10,1,FALSE,21
11,0,1,32,1.74340000000992,10,0,FALSE,22
11,1,1,50,1.96859999998997,13,1,FALSE,23
11,0,1,21,3.61069999998994,13,0,FALSE,24
11,0,1,35,2.12679999999993,16,0,FALSE,25
11,1,0,16,1.90630000000994,19,0,FALSE,26
11,0,0,35,2.54430000000005,22,1,FALSE,27
11,0,0,50,1.68129999999993,19,1,FALSE,28
11,0,1,26,1.94630000000005,16,0,FALSE,29
11,1,1,50,2.08090000000002,19,1,FALSE,30
11,1,1,50,1.65730000000005,19,1,FALSE,31
11,0,1,15,2.52179999999993,16,0,FALSE,32
11,0,1,19,2.06530000000005,19,0,FALSE,33
11,1,1,38,2.40339999999991,22,1,FALSE,34
11,1,1,40,2.37860000000009,19,1,FALSE,35
11,1,1,33,1.5545,16,1,FALSE,36
11,1,1,35,1.32229999999981,13,1,FALSE,37
11,0,1,30,1.46580000000005,10,0,FALSE,38
11,1,1,12,2.20559999999986,13,1,FALSE,39
11,1,1,50,1.9225,13,1,FALSE,40
11,0,1,36,1.53780000000005,10,0,FALSE,41
11,1,0,29,2.23819999999995,16,0,FALSE,42
11,0,1,23,2.37960000000009,19,0,FALSE,43
11,1,1,50,2.50510000000009,22,1,FALSE,44
11,1,1,33,1.916,22,1,FALSE,45
11,0,1,29,1.49380000000005,19,0,FALSE,46
11,0,1,28,1.95359999999986,22,0,FALSE,1
11,0,0,20,1.54109999999986,25,1,FALSE,2
11,1,1,36,1.57839999999991,25,1,FALSE,3
11,1,1,37,1.82119999999995,22,1,FALSE,4
11,1,1,33,1.47689999999991,19,1,FALSE,5
11,1,1,33,1.34219999999995,13,1,FALSE,6
11,0,0,15,1.87560000000009,10,1,FALSE,7
11,0,1,28,1.54630000000005,7,0,FALSE,8
11,0,0,26,1.56309999999986,10,1,FALSE,9
11,1,1,33,1.336,10,1,FALSE,10
11,0,1,22,1.51519999999995,7,0,FALSE,11
11,1,1,38,1.59419999999995,10,1,FALSE,12
11,1,1,33,1.452,10,1,FALSE,13
11,0,1,35,1.31109999999986,7,0,FALSE,14
11,0,0,23,3.054,10,1,FALSE,15
11,0,1,23,1.83569999999995,10,0,FALSE,16
11,0,0,22,1.73419999999995,13,1,FALSE,17
11,1,1,21,1.57119999999995,13,1,FALSE,18
11,1,1,23,1.46830000000005,10,1,FALSE,19
11,1,1,28,1.586,7,1,FALSE,20
11,0,0,6,2.82069999999995,4,1,FALSE,21
11,0,1,23,1.38369999999995,1,0,FALSE,22
11,1,0,31,2.19890000000014,4,0,FALSE,23
11,0,1,24,1.42140000000014,7,0,FALSE,24
11,1,1,21,1.74240000000014,10,1,FALSE,25
11,1,0,46,2.04769999999995,10,0,FALSE,26
11,0,1,33,1.56119999999995,13,0,FALSE,27
11,1,0,24,2.90980000000005,16,0,FALSE,28
11,1,1,20,2.87560000000009,19,1,FALSE,29
11,0,0,31,1.46969999999995,19,1,FALSE,30
11,1,0,22,1.97830000000005,16,0,FALSE,31
11,1,0,21,1.79709999999986,19,0,FALSE,32
11,0,0,24,2.09710000000009,22,1,FALSE,33
11,0,0,33,1.48509999999986,16,1,FALSE,34
11,1,1,21,1.798,13,1,FALSE,35
11,0,1,24,2.27130000000005,10,0,FALSE,36
11,1,1,27,1.58409999999986,13,1,FALSE,37
11,0,0,50,2.47319999999995,13,1,FALSE,38
11,0,1,29,1.78190000000014,10,0,FALSE,39
11,0,0,31,1.91689999999991,13,1,FALSE,40
11,1,1,24,1.85269999999995,16,1,FALSE,41
11,0,1,30,1.2885,13,0,FALSE,42
11,1,1,36,2.1375,16,1,FALSE,43
11,0,0,39,1.89330000000005,13,1,FALSE,44
11,1,1,50,2.28580000000005,10,1,FALSE,45
11,0,1,28,1.58969999999995,7,0,FALSE,46
11,1,1,50,1.66630000000005,10,1,FALSE,47
11,1,0,15,1.86919999999995,4,0,FALSE,48
11,1,1,50,2.32619999999995,7,1,FALSE,49
11,1,0,26,1.78190000000014,4,0,FALSE,50
11,1,1,18,1.601,7,1,FALSE,1
11,1,1,31,1.18480000000005,7,1,FALSE,2
11,0,1,26,1.47719999999995,4,0,FALSE,3
11,0,0,18,1.3585,7,1,FALSE,4
11,0,1,36,1.34060000000009,4,0,FALSE,5
11,0,1,35,1.50690000000014,7,0,FALSE,6
11,0,1,28,1.68080000000005,10,0,FALSE,7
11,0,1,50,2.33980000000005,13,0,FALSE,8
11,0,0,15,1.24990000000014,16,1,FALSE,9
11,1,1,33,1.57830000000005,13,1,FALSE,10
11,0,1,28,2.00969999999995,10,0,FALSE,11
11,0,0,33,2.09510000000009,13,1,FALSE,12
11,1,1,25,1.24780000000005,13,1,FALSE,13
11,0,1,17,1.29380000000005,10,0,FALSE,14
11,0,0,33,1.9485,13,1,FALSE,15
11,0,1,26,1.21640000000014,10,0,FALSE,16
11,1,0,21,1.38280000000005,13,0,FALSE,17
11,1,1,29,2.87540000000014,16,1,FALSE,18
11,0,0,34,1.38330000000005,16,1,FALSE,19
11,0,1,33,2.15980000000005,13,0,FALSE,20
11,0,0,50,1.8205,16,1,FALSE,21
11,1,1,50,1.56310000000009,16,1,FALSE,22
11,0,1,28,1.29759999999986,10,0,FALSE,23
11,0,0,11,3.13979999999981,13,1,FALSE,24
11,1,0,14,1.58530000000005,13,0,FALSE,25
11,0,0,15,1.62380000000005,16,1,FALSE,26
11,0,0,16,1.70479999999981,13,1,FALSE,27
11,1,0,16,1.78140000000014,10,0,FALSE,28
11,0,0,38,1.947,13,1,FALSE,29
11,0,0,25,1.445,13,1,FALSE,30
11,0,1,15,2.67780000000005,10,0,FALSE,31
11,0,0,35,2.83619999999995,13,1,FALSE,32
11,1,1,11,1.27180000000005,13,1,FALSE,33
11,1,1,16,1.46489999999991,10,1,FALSE,34
11,0,0,20,1.83659999999986,7,1,FALSE,35
11,1,1,13,1.429,4,1,FALSE,36
11,1,1,20,1.25629999999981,1,1,FALSE,37
11,1,1,23,1.93939999999991,1,1,FALSE,38
11,0,0,27,1.96489999999991,1,1,FALSE,39
11,0,1,21,1.62269999999995,1,0,FALSE,40
11,0,0,30,1.72969999999995,4,1,FALSE,41
11,0,0,34,1.72030000000005,4,1,FALSE,42
11,1,0,23,2.25239999999991,1,0,FALSE,43
11,0,1,15,1.88289999999991,4,0,FALSE,44
11,1,1,18,1.3595,7,1,FALSE,45
11,0,0,28,1.32779999999981,7,1,FALSE,46
11,1,0,50,1.76569999999995,4,0,FALSE,47
11,0,0,15,1.63760000000009,7,1,FALSE,48
11,0,0,25,1.33430000000005,7,1,FALSE,49
11,1,0,16,1.847,4,0,FALSE,50
11,1,1,14,1.71260000000009,7,1,FALSE,51
11,0,0,9,1.39940000000014,7,1,FALSE,52
11,1,1,32,1.54020000000019,4,1,FALSE,53
11,0,1,14,1.21379999999981,1,0,FALSE,54
11,1,1,13,1.48380000000005,4,1,FALSE,55
12,1,1,16,1.53229999996,18,1,FALSE,1
12,0,1,14,0.524300000049989,15,0,FALSE,2
12,0,0,17,1.66080000007001,18,1,FALSE,3
12,1,0,29,2.37119999992999,18,0,FALSE,4
12,1,1,20,2.04440000001999,21,1,FALSE,5
12,0,1,13,1.83090000006004,21,0,FALSE,6
12,1,0,23,1.60499999998003,24,0,FALSE,7
12,1,0,14,11.19339999998,27,0,FALSE,8
12,1,1,16,1.39719999989,30,1,FALSE,9
12,0,0,28,1.57980000006,30,1,FALSE,10
12,1,1,19,1.54200000001001,27,1,FALSE,11
12,1,1,15,1.46199999993999,24,1,FALSE,12
12,0,0,21,1.41570000000997,21,1,FALSE,13
12,1,0,21,1.67540000007005,18,0,FALSE,14
12,0,0,13,1.71429999998998,21,1,FALSE,15
12,1,1,13,1.72950000001001,21,1,FALSE,16
12,1,0,12,1.50910000003001,18,0,FALSE,17
12,0,0,24,1.45500000007998,21,1,FALSE,18
12,1,0,24,1.42590000003,21,0,FALSE,19
12,0,0,20,1.34030000003998,24,1,FALSE,20
12,1,0,15,1.30370000004,24,0,FALSE,21
12,0,0,30,1.26329999999999,27,1,FALSE,22
12,1,1,23,2.13710000004998,27,1,FALSE,23
12,1,0,24,1.91829999991,24,0,FALSE,24
12,0,0,12,2.21340000000998,27,1,FALSE,25
12,0,0,28,1.46279999998002,27,1,FALSE,26
12,0,0,26,1.20129999996,24,1,FALSE,27
12,1,0,18,1.69039999995998,21,0,FALSE,28
12,0,0,18,1.30059999995999,24,1,FALSE,29
12,1,0,28,1.88979999999999,24,0,FALSE,30
12,0,0,20,2.13699999998999,27,1,FALSE,31
12,1,0,20,1.2905,27,0,FALSE,32
12,1,0,12,1.83759999997,30,0,FALSE,33
12,1,0,26,2.14679999998998,33,0,FALSE,34
12,0,0,19,1.29260000005004,36,1,FALSE,35
12,0,0,22,1.65890000003995,36,1,FALSE,36
12,1,1,15,1.56459999992,33,1,FALSE,37
12,1,0,15,6.88250000006997,30,0,FALSE,38
12,1,1,13,1.16430000005988,33,1,FALSE,39
12,0,0,22,2.17139999999001,33,1,FALSE,40
12,1,0,13,6.70929999997991,30,0,FALSE,41
12,1,1,13,2.06530000001995,33,1,FALSE,42
12,0,0,22,1.36200000007998,33,1,FALSE,43
12,1,1,18,1.82770000001998,30,1,FALSE,44
12,0,0,21,1.42260000004992,27,1,FALSE,45
12,0,0,19,1.55509999999998,24,1,FALSE,46
12,1,1,19,2.0355,21,1,FALSE,47
12,0,0,13,8.03429999994009,18,1,FALSE,48
12,0,0,21,1.42379999998992,15,1,FALSE,49
12,0,0,14,1.87920000008994,12,1,FALSE,50
12,1,1,17,1.37040000001003,9,1,FALSE,51
12,1,0,12,1.36140000004997,6,0,FALSE,52
12,1,1,13,2.0266999999301,9,1,FALSE,53
12,1,0,11,1.61859999993001,9,0,FALSE,54
12,0,0,21,1.4362999999501,12,1,FALSE,55
12,1,1,17,1.46800000011001,12,1,FALSE,56
12,0,1,16,1.84829999996,9,0,FALSE,57
12,0,0,21,12.87840000004,12,1,FALSE,58
12,0,0,19,1.29790000000002,12,1,FALSE,59
12,1,1,18,1.19620000000007,9,1,FALSE,60
12,1,1,15,1.45699999993993,6,1,FALSE,1
12,0,1,10,1.65330000000005,3,0,FALSE,2
12,1,1,19,1.50540000003006,6,1,FALSE,3
12,0,1,22,1.74499999998999,6,0,FALSE,4
12,0,0,25,1.64749999995995,9,1,FALSE,5
12,0,0,21,1.79269999998994,9,1,FALSE,6
12,1,0,16,1.93479999993008,6,0,FALSE,7
12,0,0,20,1.70039999996999,9,1,FALSE,8
12,0,0,23,1.63789999998,9,1,FALSE,9
12,1,0,19,1.53249999998009,6,0,FALSE,10
12,1,1,17,1.33760000008997,9,1,FALSE,11
12,0,0,17,2.00540000001993,9,1,FALSE,12
12,0,0,24,1.4929999999,6,1,FALSE,13
12,1,1,22,1.62899999995995,3,1,FALSE,14
12,1,0,16,1.60159999994002,1,0,FALSE,15
12,1,0,9,1.64249999995995,4,0,FALSE,16
12,0,0,27,1.33089999993995,7,1,FALSE,17
12,0,0,18,1.20639999990992,7,1,FALSE,18
12,0,0,15,1.12930000002997,4,1,FALSE,19
12,0,0,19,1.36479999997991,1,1,FALSE,20
12,0,0,30,1.49560000003001,1,1,FALSE,21
12,1,0,17,1.69909999996994,1,0,FALSE,22
12,0,0,24,1.62209999992,4,1,FALSE,23
12,1,0,29,1.44160000002,4,0,FALSE,24
12,0,0,22,1.82849999994994,7,1,FALSE,25
12,1,0,18,1.82449999998999,7,0,FALSE,26
12,0,0,18,1.21269999992009,10,1,FALSE,27
12,1,1,18,2.26590000000002,10,1,FALSE,28
12,1,0,20,1.51569999999006,7,0,FALSE,29
12,1,0,15,1.53610000002,10,0,FALSE,30
12,1,0,19,1.49479999999003,13,0,FALSE,31
12,0,0,13,1.1933999999899,16,1,FALSE,32
12,1,0,9,5.08939999994007,16,0,FALSE,33
12,0,0,25,1.91769999998994,19,1,FALSE,34
12,1,0,10,1.28019999991998,19,0,FALSE,35
12,0,0,23,1.18940000003006,22,1,FALSE,36
12,1,1,22,1.32149999996007,22,1,FALSE,37
12,0,0,25,1.1262000000499,19,1,FALSE,38
12,1,1,18,1.62760000000999,16,1,FALSE,39
12,0,0,16,1.32409999997006,13,1,FALSE,40
12,0,0,24,1.25379999994999,10,1,FALSE,41
12,1,0,18,1.02110000000999,7,0,FALSE,42
12,0,0,20,1.14119999996002,10,1,FALSE,43
12,0,0,28,1.22519999998005,10,1,FALSE,44
12,1,0,22,2.20700000004994,7,0,FALSE,45
12,0,0,28,1.41890000003995,10,1,FALSE,46
12,1,0,18,1.89500000002002,10,0,FALSE,47
12,0,0,21,0.850900000069989,13,1,FALSE,48
12,0,1,22,1.81629999993998,13,0,FALSE,49
12,1,1,16,1.33549999993003,16,1,FALSE,50
12,0,1,16,1.98040000000992,16,0,FALSE,51
12,0,0,24,1.93550000001991,19,1,FALSE,52
12,1,0,16,1.41090000002005,19,0,FALSE,53
12,0,0,15,1.23710000002,22,1,FALSE,54
12,0,0,21,1.67509999998996,22,1,FALSE,55
12,1,1,14,1.33990000002005,19,1,FALSE,56
12,0,0,27,1.59890000000002,16,1,FALSE,57
12,1,0,18,1.9325,13,0,FALSE,58
12,1,0,20,2.96869999990007,16,0,FALSE,59
12,0,0,27,1.58959999999998,19,1,FALSE,60
12,1,1,12,1.25960000000009,19,1,FALSE,1
12,0,1,10,0.306699999999953,16,0,FALSE,2
12,0,0,20,1.22870000000019,19,1,FALSE,3
12,0,0,18,1.23609999999986,19,1,FALSE,4
12,1,1,17,1.41749999989988,16,1,FALSE,5
12,0,0,14,1.15789999999991,13,1,FALSE,6
12,1,0,13,1.196,10,0,FALSE,7
12,0,0,24,1.17269999999995,13,1,FALSE,8
12,0,0,18,1.2525,13,1,FALSE,9
12,1,0,16,1.57439999990002,10,0,FALSE,10
12,1,1,14,1.22719999999995,13,1,FALSE,11
12,0,0,16,1.1285,13,1,FALSE,12
12,0,0,12,1.29980000000005,10,1,FALSE,13
12,1,1,15,1.42980000009993,7,1,FALSE,14
12,1,0,24,1.37009999999986,4,0,FALSE,15
12,1,0,10,1.90870000000019,7,0,FALSE,16
12,1,1,18,1.55279999990016,10,1,FALSE,17
12,1,0,16,1.05509999999986,10,0,FALSE,18
12,1,0,12,1.52479999999981,13,0,FALSE,19
12,0,0,15,1.06330000000005,16,1,FALSE,20
12,0,0,16,1.37880000009993,16,1,FALSE,21
12,0,0,18,1.10839999999991,13,1,FALSE,22
12,1,0,11,1.65279999999981,10,0,FALSE,23
12,1,1,9,1.48459999989998,13,1,FALSE,24
12,0,0,13,1.87920000000019,13,1,FALSE,25
12,0,0,14,1.44390000009979,10,1,FALSE,26
12,0,1,16,1.18090000010002,7,0,FALSE,27
12,0,0,16,1.13489999990002,10,1,FALSE,28
12,0,0,13,1.58889999999991,10,1,FALSE,29
12,1,1,17,1.38439999999991,7,1,FALSE,30
12,1,0,11,4.02929999990016,4,0,FALSE,31
12,0,0,17,1.23560000000009,7,1,FALSE,32
12,1,1,13,1.24589999999991,7,1,FALSE,33
12,1,0,12,1.103,4,0,FALSE,34
12,1,0,14,1.03010000009998,7,0,FALSE,35
12,0,0,17,1.10939999999991,10,1,FALSE,36
12,1,1,16,1.53860000000009,10,1,FALSE,37
12,0,1,13,1.1615,7,0,FALSE,38
12,0,0,14,1.219,10,1,FALSE,39
12,0,0,12,1.52680000000005,10,1,FALSE,40
12,1,1,18,1.65520000000019,7,1,FALSE,41
12,1,0,12,1.18920000010007,4,0,FALSE,42
12,1,1,9,1.36939999990002,7,1,FALSE,43
12,0,0,17,1.07689999990002,7,1,FALSE,44
12,1,0,17,1.31260000009998,4,0,FALSE,45
12,1,1,14,1.28319999989984,7,1,FALSE,46
12,1,0,12,1.1505,7,0,FALSE,47
12,1,0,15,1.07969999999995,10,0,FALSE,48
12,1,1,17,1.31440000000014,13,1,FALSE,49
12,0,0,18,1.277,13,1,FALSE,50
12,0,0,17,1.2875,10,1,FALSE,51
12,0,0,19,1.37680000000005,7,1,FALSE,52
12,1,0,19,3.90129999999981,4,0,FALSE,53
12,1,0,16,2.69200000009988,7,0,FALSE,54
12,0,0,18,1.05639999999991,10,1,FALSE,55
12,1,0,15,1.54589999999991,10,0,FALSE,56
12,1,0,11,1.65640000000014,13,0,FALSE,57
12,1,0,12,1.63710000000009,16,0,FALSE,58
12,1,0,10,1.22339999999991,19,0,FALSE,59
12,1,0,18,1.5095,22,0,FALSE,60
12,1,1,26,1.37110000000009,25,1,FALSE,1
12,0,0,16,1.59830000009993,25,1,FALSE,2
12,1,1,18,1.74030000000005,22,1,FALSE,3
12,1,0,11,0.686699999999953,19,0,FALSE,4
12,0,0,20,1.047,22,1,FALSE,5
12,1,1,21,1.46110000009998,22,1,FALSE,6
12,0,0,19,2.0915,19,1,FALSE,7
12,0,0,15,24.8740999999002,16,1,FALSE,8
12,1,0,17,1.09510000000009,13,0,FALSE,9
12,1,0,19,0.727899999999907,16,0,FALSE,10
12,0,0,16,71.9966999999001,19,1,FALSE,11
12,0,0,16,2.10590000010002,19,1,FALSE,12
12,0,0,21,1.07810000000009,16,1,FALSE,13
12,1,1,20,1.27060000000009,13,1,FALSE,14
12,0,0,19,1.09989999999991,10,1,FALSE,15
12,0,0,19,1.05319999999995,7,1,FALSE,16
12,0,1,15,1.05730000000005,4,0,FALSE,17
12,0,0,26,1.483,7,1,FALSE,18
12,0,0,18,1.10630000000005,7,1,FALSE,19
12,1,0,20,1.55889999990002,4,0,FALSE,20
12,1,1,16,1.37439999999991,7,1,FALSE,21
12,0,0,19,1.93159999999986,7,1,FALSE,22
12,1,1,26,1.26789999990002,4,1,FALSE,23
12,1,0,18,1.21119999999995,1,0,FALSE,24
12,0,1,22,1.65210000009998,4,0,FALSE,25
12,1,0,18,1.13260000000009,7,0,FALSE,26
12,0,0,14,1.97819999989984,10,1,FALSE,27
12,1,0,21,1.10910000000009,10,0,FALSE,28
12,1,1,23,1.33889999999991,13,1,FALSE,29
12,0,1,23,1.38400000010012,13,0,FALSE,30
12,1,0,20,1.02290000010002,16,0,FALSE,31
12,0,0,23,1.54189999999991,19,1,FALSE,32
12,1,1,18,1.27880000000005,19,1,FALSE,33
12,0,0,14,1.05560000000009,16,1,FALSE,34
12,0,0,22,1.11760000000009,13,1,FALSE,35
12,0,0,20,1.51210000000009,10,1,FALSE,36
12,1,1,13,1.48680000000005,7,1,FALSE,37
12,0,0,18,0.991899999999907,4,1,FALSE,38
12,1,0,14,1.07069999999995,1,0,FALSE,39
12,0,0,14,1.10089999999991,4,1,FALSE,40
12,1,0,10,1.167,4,0,FALSE,41
12,1,1,19,1.8935,7,1,FALSE,42
12,0,1,23,1.26600000010012,7,0,FALSE,43
12,0,0,24,1.23810000000009,10,1,FALSE,44
12,0,0,18,1.41589999999991,10,1,FALSE,45
12,0,0,14,1.75269999999995,7,1,FALSE,46
12,1,1,13,1.63290000000014,4,1,FALSE,47
12,1,0,17,0.9955,1,0,FALSE,48
12,0,0,20,4.72839999999991,4,1,FALSE,49
12,1,0,15,1.43030000000005,4,0,FALSE,50
12,0,0,24,1.07930000000005,7,1,FALSE,51
12,0,1,20,2.02030000000005,7,0,FALSE,52
12,1,0,19,2.39490000010002,10,0,FALSE,53
12,0,0,24,1.12339999999991,13,1,FALSE,54
12,1,0,20,2.129,13,0,FALSE,55
12,0,1,17,1.58539999999991,16,0,FALSE,56
12,1,1,20,1.30440000000014,19,1,FALSE,57
12,0,0,15,1.43969999990007,19,1,FALSE,58
12,1,1,16,1.50180000000005,16,1,FALSE,59
12,0,0,20,1.35460000010021,13,1,FALSE,60
13,1,1,50,2.51039999999999,27,1,FALSE,1
13,1,1,50,1.84929999999999,24,1,FALSE,2
13,0,0,33,2.46330000001,18,1,FALSE,3
13,0,0,35,1.72480000000002,15,1,FALSE,4
13,1,1,31,1.59990000000998,12,1,FALSE,5
13,1,0,24,1.7455,9,0,FALSE,6
13,0,0,25,1.89890000000002,12,1,FALSE,7
13,0,0,38,2.05539999999001,15,1,FALSE,8
13,0,1,24,1.62969999999998,12,0,FALSE,9
13,1,1,49,1.78900000001001,15,1,FALSE,10
13,1,1,50,1.43580000001,12,1,FALSE,11
13,0,1,33,1.97560000000001,9,0,FALSE,12
13,1,0,36,1.62509999998999,12,0,FALSE,13
13,0,0,36,1.31,15,1,FALSE,14
13,1,1,42,1.44129999999001,15,1,FALSE,15
13,1,1,29,1.86139999998998,12,1,FALSE,16
13,0,0,35,1.74499999999002,9,1,FALSE,17
13,0,0,42,1.79010000000001,6,1,FALSE,18
13,0,1,37,1.93249999998999,3,0,FALSE,19
13,0,1,36,1.392,6,0,FALSE,20
13,1,0,39,1.51179999999003,9,0,FALSE,21
13,1,0,33,1.21470000000001,12,0,FALSE,22
13,1,1,30,2.07040000001003,15,1,FALSE,23
13,1,1,39,1.57699999998999,15,1,FALSE,24
13,0,0,28,1.47859999999998,12,1,FALSE,25
13,1,1,29,1.50730000001,9,1,FALSE,26
13,0,0,28,1.66440000000998,6,1,FALSE,27
13,1,1,34,1.79890000000998,3,1,FALSE,28
13,1,0,43,1.86760000000004,1,0,FALSE,29
13,0,1,30,1.48829999999999,4,0,FALSE,30
13,0,1,32,1.58609999999998,7,0,FALSE,31
13,1,1,46,1.90230000001,10,1,FALSE,32
13,0,1,38,1.86020000000001,7,0,FALSE,33
13,1,0,28,1.88290000000002,10,0,FALSE,34
13,1,1,18,1.82859999999998,13,1,FALSE,35
13,0,0,21,1.56020000001002,13,1,FALSE,36
13,0,1,22,1.463,10,0,FALSE,37
13,1,0,21,2.12160000000004,13,0,FALSE,38
13,0,0,34,3.61440000000998,16,1,FALSE,39
13,0,0,30,1.65180000001,13,1,FALSE,40
13,1,1,16,1.48129999999999,10,1,FALSE,41
13,1,1,39,3.03120000000001,7,1,FALSE,42
13,0,0,27,1.49369999999,4,1,FALSE,43
13,0,1,10,2.23450000001001,1,0,FALSE,44
13,0,0,17,1.48520000001002,4,1,FALSE,45
13,1,0,33,1.70390000000998,4,0,FALSE,46
13,1,1,15,1.57779999999999,7,1,FALSE,47
13,0,0,32,1.46040000000002,7,1,FALSE,48
13,1,0,11,1.473,4,0,FALSE,49
13,0,1,17,1.48369999999,7,0,FALSE,50
13,1,1,31,2.10699999998999,10,1,FALSE,51
13,1,0,27,2.04070000001002,7,0,FALSE,52
13,0,0,38,1.8585,10,1,FALSE,53
13,0,0,26,2.02129999999003,10,1,FALSE,1
13,0,0,30,1.48970000000001,7,1,FALSE,2
13,0,0,27,2.07150000001001,4,1,FALSE,3
13,1,0,32,1.67670000001002,1,0,FALSE,4
13,1,0,33,1.58520000000001,7,0,FALSE,5
13,0,0,33,1.999,10,1,FALSE,6
13,0,0,21,2.1535,10,1,FALSE,7
13,1,1,17,1.66630000001006,7,1,FALSE,8
13,0,0,41,2.23090000000002,4,1,FALSE,9
13,0,1,19,1.69519999999995,1,0,FALSE,10
13,0,0,50,1.56080000001006,4,1,FALSE,11
13,1,0,29,1.29340000000992,7,0,FALSE,12
13,0,0,25,1.37679999999003,10,1,FALSE,13
13,1,1,21,1.47260000000999,10,1,FALSE,14
13,0,1,8,1.76940000000992,7,0,FALSE,15
13,1,1,34,2.59690000000002,10,1,FALSE,16
13,1,1,37,2.00170000000996,10,1,FALSE,17
13,0,0,33,1.44680000000005,10,1,FALSE,18
13,1,1,24,1.77940000000002,10,1,FALSE,19
13,1,0,18,1.647,7,0,FALSE,20
13,1,1,24,1.84159999999998,10,1,FALSE,21
13,0,0,28,1.34629999999003,10,1,FALSE,22
13,0,0,32,2.54870000000007,4,1,FALSE,23
13,1,0,39,1.72209999999998,1,0,FALSE,24
13,1,0,36,1.75799999998999,4,0,FALSE,25
13,1,1,22,1.37569999999006,7,1,FALSE,26
13,0,0,28,1.71620000000007,10,1,FALSE,27
13,0,0,34,1.46419999999995,7,1,FALSE,28
13,1,0,33,1.57909999999998,4,0,FALSE,29
13,1,1,25,1.83369999999995,7,1,FALSE,30
13,0,0,26,1.52809999999998,7,1,FALSE,31
13,1,1,44,2.37069999999995,4,1,FALSE,32
13,1,0,32,1.79969999999995,1,0,FALSE,33
13,0,0,23,1.52339999999001,4,1,FALSE,34
13,0,0,46,2.61070000000996,4,1,FALSE,35
13,0,0,37,1.54649999998999,1,1,FALSE,36
13,1,0,36,1.50209999999998,1,0,FALSE,37
13,0,1,32,1.49980000000005,4,0,FALSE,38
13,0,0,31,1.50330000000994,7,1,FALSE,39
13,1,0,24,2.23409999999998,7,0,FALSE,40
13,1,1,20,1.49360000000999,10,1,FALSE,41
13,1,0,30,1.79529999999993,10,0,FALSE,42
13,0,0,32,1.57090000001004,13,1,FALSE,43
13,0,1,22,1.74040000000002,13,0,FALSE,44
13,0,0,30,1.39119999999995,16,1,FALSE,45
13,0,0,31,1.98859999999998,16,1,FALSE,46
13,0,0,26,1.63030000000005,13,1,FALSE,47
13,0,0,31,1.45540000000002,10,1,FALSE,48
13,0,0,36,1.48369999998994,7,1,FALSE,49
13,0,1,24,1.82650000001001,4,0,FALSE,50
13,1,0,28,1.748,7,0,FALSE,51
13,1,0,31,1.37779999999993,10,0,FALSE,52
13,1,0,30,1.43730000000005,13,0,FALSE,53
13,0,0,41,1.59890000001004,16,1,FALSE,54
13,0,0,25,1.93059999998997,16,1,FALSE,1
13,1,1,26,2.554,13,1,FALSE,2
13,1,1,23,1.26659999998997,10,1,FALSE,3
13,0,0,33,1.92740000000002,7,1,FALSE,4
13,1,1,24,1.37920000000997,4,1,FALSE,5
13,0,0,21,1.84889999999001,1,1,FALSE,6
13,0,0,26,1.88279999999003,1,1,FALSE,7
13,0,0,36,2.23710000000009,1,1,FALSE,8
13,1,1,19,1.60279999999003,1,1,FALSE,9
13,1,0,34,3.66360000000009,1,0,FALSE,10
13,0,0,35,2.004,4,1,FALSE,11
13,1,1,19,2.22770000001008,4,1,FALSE,12
13,1,1,21,1.56180000000005,4,1,FALSE,13
13,0,1,23,1.73510000000009,4,0,FALSE,14
13,0,1,21,1.33230000000005,7,0,FALSE,15
13,0,0,26,1.61810000000999,10,1,FALSE,16
13,0,0,30,1.40859999999998,10,1,FALSE,17
13,0,0,25,1.31140000000002,7,1,FALSE,18
13,1,1,20,1.96820000000007,4,1,FALSE,19
13,0,0,29,1.26059999999998,1,1,FALSE,20
13,1,0,31,1.27330000000005,1,0,FALSE,21
13,0,1,17,1.55909999999998,4,0,FALSE,22
13,1,1,14,1.44259999999998,7,1,FALSE,23
13,1,0,30,1.6475,7,0,FALSE,24
13,1,1,26,1.55409999999998,10,1,FALSE,25
13,1,0,32,1.86480000000005,10,0,FALSE,26
13,0,0,39,1.91059999999986,13,1,FALSE,27
13,1,0,19,2.70319999999995,13,0,FALSE,28
13,1,1,25,2.44089999999991,16,1,FALSE,29
13,1,1,14,1.24660000000009,16,1,FALSE,30
13,1,0,23,1.24559999999986,13,0,FALSE,31
13,0,0,31,1.99410000000009,16,1,FALSE,32
13,0,0,35,1.68860000000009,16,1,FALSE,33
13,0,0,31,1.3905,13,1,FALSE,34
13,0,0,37,1.63210000000009,10,1,FALSE,35
13,1,1,7,2.171,7,1,FALSE,36
13,0,0,30,1.64560000000009,4,1,FALSE,37
13,1,1,14,1.76739999999991,1,1,FALSE,38
13,1,0,34,1.75329999999981,1,0,FALSE,39
13,0,0,28,1.52389999999991,4,1,FALSE,40
13,1,1,16,1.57539999999991,4,1,FALSE,41
13,0,0,28,1.33330000000005,1,1,FALSE,42
13,1,0,36,1.57889999999991,1,0,FALSE,43
13,1,0,33,1.74569999999995,4,0,FALSE,44
13,0,0,27,1.66130000000005,7,1,FALSE,45
13,0,0,14,1.81580000000005,7,1,FALSE,46
13,1,1,30,2.22059999999986,4,1,FALSE,47
13,0,0,36,2.07639999999991,1,1,FALSE,48
13,0,0,35,1.51030000000005,1,1,FALSE,49
13,1,1,23,2.7705,1,1,FALSE,50
13,0,0,26,2.7825,1,1,FALSE,51
13,0,0,25,1.079,1,1,FALSE,52
13,1,0,27,1.70569999999995,1,0,FALSE,53
13,1,0,31,1.57860000000009,4,0,FALSE,54
13,1,0,15,3.577,7,0,FALSE,55
13,0,0,36,1.60160000000009,10,1,FALSE,56
13,1,1,11,1.9635,10,1,FALSE,57
13,1,0,24,1.552,7,0,FALSE,1
13,0,0,24,1.63569999999995,10,1,FALSE,2
13,0,0,29,1.42619999999995,10,1,FALSE,3
13,0,0,28,1.83920000000019,7,1,FALSE,4
13,0,0,24,1.2515,4,1,FALSE,5
13,1,0,29,1.3895,1,0,FALSE,6
13,0,0,48,1.54789999999991,4,1,FALSE,7
13,0,0,31,2.0265,4,1,FALSE,8
13,1,0,28,1.4205,1,0,FALSE,9
13,1,0,19,1.71189999999991,4,0,FALSE,10
13,0,0,26,1.43080000000005,7,1,FALSE,11
13,1,0,32,1.81419999999995,7,0,FALSE,12
13,0,0,27,1.47310000000009,10,1,FALSE,13
13,0,0,27,1.29960000000009,10,1,FALSE,14
13,1,0,38,1.88730000000005,7,0,FALSE,15
13,0,0,22,1.893,10,1,FALSE,16
13,1,0,30,3.40039999999991,10,0,FALSE,17
13,1,0,11,2.127,13,0,FALSE,18
13,1,0,23,1.89560000000009,16,0,FALSE,19
13,1,0,9,5.61490000000014,19,0,FALSE,20
13,0,0,38,1.75810000000009,22,1,FALSE,21
13,1,0,21,1.43819999999995,19,0,FALSE,22
13,1,1,14,1.6745,22,1,FALSE,23
13,1,1,22,1.96090000000014,22,1,FALSE,24
13,0,0,28,1.83339999999991,19,1,FALSE,25
13,0,0,25,1.71929999999981,16,1,FALSE,26
13,0,0,19,1.55960000000009,13,1,FALSE,27
13,1,0,12,4.70530000000005,10,0,FALSE,28
13,0,0,28,1.93489999999991,13,1,FALSE,29
13,0,0,34,1.53539999999991,13,1,FALSE,30
13,0,0,29,6.014,10,1,FALSE,31
13,0,0,26,3.27539999999991,7,1,FALSE,32
13,1,0,25,3.19689999999991,4,0,FALSE,33
13,1,1,24,2.86019999999995,7,1,FALSE,34
13,1,0,19,2.13060000000009,7,0,FALSE,35
13,0,0,18,2.2795,10,1,FALSE,36
13,0,0,34,2.10810000000009,10,1,FALSE,37
13,0,0,22,2.06880000000005,7,1,FALSE,38
13,1,0,23,4.35429999999981,4,0,FALSE,39
13,1,1,16,1.82,7,1,FALSE,40
13,1,0,19,5.24669999999995,7,0,FALSE,41
13,0,0,30,1.38969999999995,10,1,FALSE,42
13,1,1,16,1.68019999999995,10,1,FALSE,43
13,1,1,24,2.05679999999981,7,1,FALSE,44
13,1,0,21,1.66959999999986,4,0,FALSE,45
13,0,0,19,3.69,7,1,FALSE,46
13,1,0,18,2.18859999999986,7,0,FALSE,47
13,0,1,17,1.68119999999995,10,0,FALSE,48
13,1,1,18,2.522,13,1,FALSE,49
13,0,0,38,3.67539999999991,13,1,FALSE,50
13,1,0,29,1.39010000000009,10,0,FALSE,51
13,1,0,21,1.73680000000005,13,0,FALSE,52
13,0,0,19,1.2885,16,1,FALSE,53
13,1,1,18,1.793,16,1,FALSE,54
13,1,1,17,1.73259999999986,13,1,FALSE,55
13,0,0,22,1.99930000000005,10,1,FALSE,56
13,0,0,28,2.43589999999991,7,1,FALSE,57
13,1,0,28,3.30730000000005,4,0,FALSE,58
13,0,0,28,1.84989999999991,7,1,FALSE,59
14,0,0,26,2.61169999999,24,1,FALSE,1
14,0,0,31,2.8125,24,1,FALSE,2
14,1,1,36,2.94089999999999,21,1,FALSE,3
14,0,0,34,2.67639999999999,18,1,FALSE,4
14,1,1,44,2.37980000001,15,1,FALSE,5
14,1,1,25,2.81720000001002,12,1,FALSE,6
14,0,0,22,2.52110000000001,9,1,FALSE,7
14,1,1,29,2.29579999998998,6,1,FALSE,8
14,0,0,22,3.56449999998999,3,1,FALSE,9
14,0,1,29,3.26039999999999,1,0,FALSE,10
14,1,1,33,3.05119999997999,4,1,FALSE,11
14,1,1,18,3.45820000000999,4,1,FALSE,12
14,1,0,26,2.14070000000001,1,0,FALSE,13
14,1,0,23,2.99609999998999,4,0,FALSE,14
14,0,0,12,2.65680000002001,7,1,FALSE,15
14,1,0,26,2.50590000001001,7,0,FALSE,16
14,0,1,20,2.42470000000999,10,0,FALSE,17
14,0,0,23,2.80090000000002,13,1,FALSE,18
14,0,0,18,3.01239999999001,13,1,FALSE,19
14,1,0,24,2.97100000000995,10,0,FALSE,20
14,0,0,35,2.63570000000001,13,1,FALSE,21
14,0,0,25,2.21270000001002,13,1,FALSE,22
14,1,0,12,3.66720000000001,10,0,FALSE,23
14,1,1,24,2.71500000000995,13,1,FALSE,24
14,0,1,21,2.36140000000998,13,0,FALSE,25
14,0,0,21,2.90220000000001,16,1,FALSE,26
14,1,1,23,2.71279999999999,16,1,FALSE,27
14,1,1,26,2.33130000001,13,1,FALSE,28
14,1,1,23,2.42979999998998,10,1,FALSE,29
14,0,0,22,2.12970000000001,7,1,FALSE,30
14,1,1,28,2.60489999999001,4,1,FALSE,31
14,1,0,8,15.6048,1,0,FALSE,32
14,1,1,26,1.98359999999998,4,1,FALSE,33
14,1,1,32,2.45970000001002,4,1,FALSE,34
14,1,0,8,3.14370000000001,1,0,FALSE,35
14,1,1,27,2.99369999999,4,1,FALSE,36
14,0,1,11,3.24420000000001,4,0,FALSE,37
14,0,0,21,3.31629999999999,7,1,FALSE,38
14,1,1,24,3.77159999998997,7,1,FALSE,39
14,0,1,25,2.16230000000005,4,0,FALSE,40
14,1,0,19,2.14189999999001,7,0,FALSE,41
14,1,1,22,2.43820000001002,10,1,FALSE,42
14,0,0,25,2.17200000001001,10,1,FALSE,43
14,0,1,25,2.19340000001004,7,0,FALSE,44
14,1,1,24,2.89880000000005,10,1,FALSE,45
14,1,0,30,2.39330000000005,10,0,FALSE,46
14,1,1,24,2.457,13,1,FALSE,47
14,0,0,25,2.44270000001998,13,1,FALSE,48
14,0,0,19,2.50520000000001,10,1,FALSE,49
14,1,0,18,3.10289999999996,7,0,FALSE,50
14,0,0,25,2.35419999999995,10,1,FALSE,51
14,0,1,20,2.24809999998996,10,0,FALSE,52
14,1,1,25,2.18610000000999,13,1,FALSE,53
14,1,1,29,3.51260000000004,13,1,FALSE,54
14,0,0,24,2.6429999999901,10,1,FALSE,55
14,1,1,32,2.77869999999995,7,1,FALSE,56
14,0,0,20,2.12970000000997,4,1,FALSE,57
14,1,1,28,2.60819999999995,1,1,FALSE,58
14,0,0,13,4.03839999999001,1,1,FALSE,59
14,0,1,29,2.80490000000002,1,0,FALSE,60
14,1,1,24,2.44219999998994,4,1,FALSE,1
14,0,1,27,2.16569999998994,4,0,FALSE,2
14,1,1,27,2.37329999999993,7,1,FALSE,3
14,1,1,27,2.13249999998999,7,1,FALSE,4
14,0,0,28,2.2455,4,1,FALSE,5
14,1,1,16,3.34519999999995,1,1,FALSE,6
14,0,1,29,2.09650000002002,1,0,FALSE,7
14,0,1,12,2.60609999999998,4,0,FALSE,8
14,0,0,23,2.60110000000009,7,1,FALSE,9
14,0,1,24,2.6495,7,0,FALSE,10
14,1,1,28,2.17780000001006,10,1,FALSE,11
14,0,1,11,2.51779999999993,10,0,FALSE,12
14,0,0,13,2.62700000001001,13,1,FALSE,13
14,0,0,12,2.47429999998002,13,1,FALSE,14
14,1,1,31,2.99079999999993,10,1,FALSE,15
14,1,1,27,2.17519999999995,7,1,FALSE,16
14,1,0,21,2.20369999999995,4,0,FALSE,17
