{"timeStart":1520346057957,"dotCount":200,"dotDifference":24,"difficultyStep":3,"advisors":[{"id":1,"adviceType":0,"voice":{"basePath":"","id":2,"name":"Bea","lines":{"think_left":{"filePath":"assets/audio/voices/2/think_left.wav","string":"I think it was on the LEFT","loaded":true,"loading":true,"data":null,"buffer":{},"side":0,"confidence":0},"think_right":{"filePath":"assets/audio/voices/2/think_right.wav","string":"I think it was on the RIGHT","loaded":true,"loading":true,"data":null,"buffer":{},"side":1,"confidence":0},"left_think":{"filePath":"assets/audio/voices/2/left_think.wav","string":"It was on the LEFT, I think","loaded":true,"loading":true,"data":null,"buffer":{},"side":0,"confidence":0},"right_think":{"filePath":"assets/audio/voices/2/right_think.wav","string":"It was on the RIGHT, I think","loaded":true,"loading":true,"data":null,"buffer":{},"side":1,"confidence":0},"intro":{"filePath":"assets/audio/voices/2/intro.wav","string":"Hello, my name is BEA","loaded":true,"loading":true,"data":null,"buffer":{},"side":false}}},"name":"Bea","portrait":{},"portraitSrc":"http://localhost:8080/ExploringSocialMetacognition/assets/image/advisor3.png"},{"id":3,"adviceType":2,"voice":{"basePath":"","id":3,"name":"Kate","lines":{"think_left":{"filePath":"assets/audio/voices/3/think_left.wav","string":"I think it was on the LEFT","loaded":true,"loading":true,"data":null,"buffer":{},"side":0,"confidence":0},"think_right":{"filePath":"assets/audio/voices/3/think_right.wav","string":"I think it was on the RIGHT","loaded":true,"loading":true,"data":null,"buffer":{},"side":1,"confidence":0},"left_think":{"filePath":"assets/audio/voices/3/left_think.wav","string":"It was on the LEFT, I think","loaded":true,"loading":true,"data":null,"buffer":{},"side":0,"confidence":0},"right_think":{"filePath":"assets/audio/voices/3/right_think.wav","string":"It was on the RIGHT, I think","loaded":true,"loading":true,"data":null,"buffer":{},"side":1,"confidence":0},"intro":{"filePath":"assets/audio/voices/3/intro.wav","string":"Hello, my name is KATE","loaded":true,"loading":true,"data":null,"buffer":{},"side":false}}},"name":"Kate","portrait":{},"portraitSrc":"http://localhost:8080/ExploringSocialMetacognition/assets/image/advisor1.png"},{"id":2,"adviceType":1,"voice":{"basePath":"","id":1,"name":"Annie","lines":{"think_left":{"filePath":"assets/audio/voices/1/think_left.wav","string":"I think it was on the LEFT","loaded":true,"loading":true,"data":null,"buffer":{},"side":0,"confidence":0},"think_right":{"filePath":"assets/audio/voices/1/think_right.wav","string":"I think it was on the RIGHT","loaded":true,"loading":true,"data":null,"buffer":{},"side":1,"confidence":0},"left_think":{"filePath":"assets/audio/voices/1/left_think.wav","string":"It was on the LEFT, I think","loaded":true,"loading":true,"data":null,"buffer":{},"side":0,"confidence":0},"right_think":{"filePath":"assets/audio/voices/1/right_think.wav","string":"It was on the RIGHT, I think","loaded":true,"loading":true,"data":null,"buffer":{},"side":1,"confidence":0},"intro":{"filePath":"assets/audio/voices/1/intro.wav","string":"Hello, my name is ANNIE","loaded":true,"loading":true,"data":null,"buffer":{},"side":false}}},"name":"Annie","portrait":{},"portraitSrc":"http://localhost:8080/ExploringSocialMetacognition/assets/image/advisor2.png"}],"blockCount":2,"blockStructure":{"0":0,"1":6,"2":6},"blockLength":12,"practiceBlockCount":1,"practiceBlockStructure":{"0":0,"1":4,"2":0},"practiceBlockLength":4,"preTrialInterval":200,"preStimulusInterval":500,"stimulusDuration":200,"feedbackDuration":200,"questionnaireFrequency":4,"questionnaireStack":[],"miscTrials":[{"view_history":"[{\"page_index\":0,\"viewing_time\":18314},{\"page_index\":1,\"viewing_time\":1894}]","rt":20209,"trial_type":"instructions","trial_index":0,"time_elapsed":20211,"internal_node_id":"0.0-0.0"},{"view_history":"[{\"page_index\":0,\"viewing_time\":635}]","rt":635,"trial_type":"instructions","trial_index":2,"time_elapsed":24011,"internal_node_id":"0.0-2.0"},{"view_history":"[{\"page_index\":0,\"viewing_time\":616}]","rt":616,"trial_type":"instructions","trial_index":4,"time_elapsed":27936,"internal_node_id":"0.0-4.0"},{"view_history":"[{\"page_index\":0,\"viewing_time\":786}]","rt":786,"trial_type":"instructions","trial_index":8,"time_elapsed":37143,"internal_node_id":"0.0-6.0"},{"view_history":"[{\"page_index\":0,\"viewing_time\":3178}]","rt":3179,"trial_type":"instructions","trial_index":22,"time_elapsed":76389,"internal_node_id":"0.0-9.0"},{"view_history":"[{\"page_index\":0,\"viewing_time\":2494}]","rt":2494,"trial_type":"instructions","trial_index":23,"time_elapsed":78883,"internal_node_id":"0.0-10.0"},{"view_history":"[{\"page_index\":0,\"viewing_time\":216853}]","rt":216854,"trial_type":"instructions","trial_index":62,"time_elapsed":412393,"internal_node_id":"0.0-14.0"}],"trials":[{"type":1,"typeName":"force","block":1,"advisorId":0,"choice":[],"answer":[0,null],"confidence":[100,null],"whichSide":0,"practice":true,"feedback":true,"warnings":[],"stimulusDrawTime":[21143.499999772757],"stimulusOffTime":[null],"fixationDrawTime":[20643.499999772757],"id":1,"dotDifference":30,"grid":{"dotCountL":230,"dotCountR":170,"gridWidth":20,"gridHeight":20,"dotWidth":2,"dotHeight":2,"paddingX":6,"paddingY":6,"gridL":[[1,1,1,0,0,1,1,0,1,0,0,1,0,1,0,1,1,1,1,0],[0,0,1,1,1,0,0,1,0,0,1,1,1,0,1,0,1,1,0,1],[0,0,1,1,1,0,0,1,0,1,0,1,1,0,1,1,1,0,0,0],[1,1,1,1,0,0,1,1,1,1,1,1,0,1,1,1,1,0,1,0],[0,1,1,1,1,0,1,0,1,1,1,0,1,1,0,1,1,0,1,1],[0,1,1,1,0,1,0,0,1,1,1,0,0,0,1,1,0,0,0,1],[0,0,0,1,1,1,1,1,0,0,0,1,1,0,1,1,1,0,0,1],[0,0,1,0,1,1,1,0,0,0,1,1,0,1,1,1,1,1,1,1],[0,1,0,0,1,0,1,1,1,0,1,0,1,1,0,0,0,0,1,1],[0,0,0,0,0,1,0,0,1,0,0,1,0,0,0,1,1,0,0,1],[1,1,1,0,0,1,1,1,1,1,1,1,0,1,1,1,1,1,0,1],[1,0,0,1,0,1,1,1,1,1,1,1,0,1,1,1,1,1,1,1],[0,1,1,1,1,0,1,1,0,0,1,1,1,0,1,1,0,1,1,0],[0,1,1,0,1,0,1,1,1,1,1,0,1,1,0,0,0,0,0,1],[1,0,1,1,0,0,1,1,0,0,0,1,1,1,1,1,0,1,0,1],[0,0,1,0,1,1,1,0,1,0,1,1,0,0,1,1,1,0,1,0],[1,1,1,1,1,1,1,1,1,0,1,0,1,1,0,0,0,0,0,0],[0,1,0,1,0,0,1,1,1,0,0,1,1,1,1,1,1,0,0,0],[0,1,0,0,0,0,1,0,0,0,0,1,1,0,0,1,1,0,0,0],[0,0,0,0,1,0,0,0,1,1,1,1,1,0,0,1,0,1,1,1]],"gridR":[[0,1,1,0,0,0,1,0,0,1,1,0,1,0,0,1,0,1,0,0],[1,1,0,1,0,1,1,1,0,0,0,1,0,0,0,1,0,1,1,0],[0,0,1,0,0,0,1,0,0,0,1,0,1,1,1,0,0,0,0,1],[0,0,1,0,0,0,0,1,1,1,1,0,1,0,0,0,0,0,1,1],[0,0,1,1,0,0,1,0,1,0,0,1,0,0,0,0,0,0,1,1],[0,1,0,1,1,1,0,0,0,0,1,0,1,1,0,0,0,0,1,0],[0,0,0,1,1,0,1,0,0,1,0,0,1,1,0,0,0,0,0,1],[0,0,1,1,0,1,0,0,0,0,0,1,0,0,0,0,0,0,0,1],[0,0,0,0,1,1,0,1,0,1,0,0,0,0,0,1,1,1,1,0],[1,1,0,0,1,0,1,1,0,1,1,1,1,1,0,0,1,0,0,1],[0,0,1,0,1,0,0,0,1,1,0,1,1,0,1,1,1,1,0,0],[1,1,0,0,0,1,1,0,1,0,0,1,0,0,0,0,1,1,1,1],[1,0,0,1,0,1,0,1,0,0,0,1,0,0,0,0,1,0,1,0],[0,0,0,1,0,1,0,0,0,1,1,1,1,0,1,0,1,1,0,0],[0,0,1,1,0,1,1,1,0,1,0,1,0,1,0,0,0,1,0,0],[0,0,1,0,1,1,0,1,1,0,1,0,0,0,0,1,0,1,0,1],[1,0,0,0,1,0,1,1,0,0,1,0,1,0,1,0,1,0,1,0],[1,0,1,0,1,1,0,1,1,1,0,0,0,1,1,0,1,1,0,0],[1,0,1,1,0,0,0,0,1,1,1,0,0,1,1,1,1,0,1,0],[1,0,1,0,0,0,0,0,1,0,0,0,0,1,1,0,0,0,0,0]],"displayWidth":172,"displayHeight":172,"spacing":100,"style":{"gridBorderColor":"#ffffff","gridBorderWidth":"3","dotColor":"#ffffff","dotLineWidth":"1"}},"pluginResponse":[{"startTime":20443.500000052154,"rt":2961.00000012666,"response":[{"id":0,"name":"Left","answer":100,"prompt":"Left","lastChangedTime":22868.49999986589},{"id":1,"name":"Right","answer":"50","prompt":"Right","lastChangedTime":null}],"trial_type":"canvas-sliders-response","trial_index":1,"time_elapsed":23176,"internal_node_id":"0.0-1.0"}]},{"type":1,"typeName":"force","block":1,"advisorId":0,"choice":[],"answer":[0,null],"confidence":[100,null],"whichSide":0,"practice":true,"feedback":true,"warnings":[],"stimulusDrawTime":[24941.50000018999],"stimulusOffTime":[null],"fixationDrawTime":[24442.49999988824],"id":2,"dotDifference":30,"grid":{"dotCountL":230,"dotCountR":170,"gridWidth":20,"gridHeight":20,"dotWidth":2,"dotHeight":2,"paddingX":6,"paddingY":6,"gridL":[[1,1,0,1,0,1,0,1,1,0,1,1,0,1,1,1,1,0,0,1],[0,1,0,1,0,1,0,1,0,1,1,1,1,0,0,0,1,1,1,1],[1,1,1,1,1,0,1,1,0,0,1,1,1,1,0,0,1,0,1,1],[0,1,1,0,1,0,1,0,1,1,1,0,1,1,1,1,0,1,1,0],[1,1,0,0,1,1,0,1,0,1,1,1,1,1,0,0,0,0,0,1],[1,1,0,1,1,0,1,1,1,1,1,0,1,0,0,0,1,1,0,0],[0,0,1,1,1,0,1,1,1,0,1,0,1,0,1,0,1,1,0,1],[0,0,1,0,0,0,0,1,0,1,1,0,1,1,1,1,0,0,0,1],[0,0,1,0,1,0,1,1,1,1,0,0,0,1,1,1,1,0,1,0],[0,1,1,0,0,1,1,0,1,1,1,0,1,1,1,1,1,1,0,0],[1,0,0,1,0,0,1,1,1,0,1,0,1,0,0,1,0,0,0,0],[1,0,1,1,0,1,0,1,1,0,1,0,1,1,0,1,1,0,1,1],[1,1,1,0,0,1,1,0,1,1,0,0,1,1,0,1,0,1,0,1],[1,0,1,1,1,0,1,0,1,1,1,1,1,1,0,1,1,1,0,0],[0,0,1,0,0,1,1,0,1,0,1,1,0,1,0,1,1,1,0,1],[1,1,1,1,0,1,1,0,1,0,0,1,1,0,0,1,1,0,1,0],[0,0,1,0,0,0,1,1,0,1,0,1,0,1,1,0,1,1,1,0],[0,1,0,1,1,1,1,0,0,1,0,0,0,0,0,1,0,1,1,0],[1,1,1,1,0,0,1,0,0,1,1,1,0,1,1,0,1,0,1,0],[1,0,1,0,0,0,1,0,0,0,1,1,0,0,1,1,1,1,0,0]],"gridR":[[0,0,0,0,1,0,1,0,1,1,0,0,1,0,1,1,0,0,1,0],[0,0,0,0,0,1,1,0,1,1,0,1,1,1,0,0,1,1,0,0],[0,0,0,0,0,0,1,0,0,0,1,0,0,0,0,0,0,0,1,0],[0,0,1,0,0,0,1,0,0,1,0,0,0,0,1,0,0,0,1,0],[0,0,1,1,1,0,0,0,1,0,0,1,1,0,0,0,0,1,1,0],[1,1,0,0,0,0,1,1,0,0,0,1,0,1,0,0,1,0,0,0],[0,1,1,0,1,0,1,1,0,1,0,1,1,1,1,1,1,1,0,0],[1,0,0,0,1,1,1,0,0,1,0,1,1,1,1,1,1,1,0,1],[0,0,0,1,1,1,1,0,0,1,0,0,0,0,0,1,0,0,0,1],[0,1,1,1,0,1,0,1,0,0,1,1,0,1,0,1,0,1,1,1],[0,0,1,1,1,1,1,1,0,1,0,1,1,0,1,1,1,0,0,1],[1,0,0,0,0,1,1,0,0,0,0,0,1,1,0,1,0,0,0,1],[1,1,0,0,0,0,0,0,0,1,1,0,0,0,1,0,1,1,1,1],[0,1,0,0,0,0,0,1,1,0,0,0,1,0,0,1,0,0,0,0],[0,1,0,1,0,1,1,1,1,1,0,1,0,0,1,1,1,0,0,1],[0,1,0,0,1,0,1,0,0,0,0,0,1,1,0,0,0,1,0,0],[0,0,0,0,0,0,1,0,1,1,0,0,1,1,0,0,0,0,0,0],[1,1,1,0,0,0,1,0,1,0,0,0,0,0,0,1,1,0,1,1],[0,0,1,1,1,0,0,1,0,1,0,0,1,0,0,0,0,0,1,0],[0,1,1,1,0,1,0,0,0,1,1,1,0,1,1,1,1,0,0,1]],"displayWidth":172,"displayHeight":172,"spacing":100,"style":{"gridBorderColor":"#ffffff","gridBorderWidth":"3","dotColor":"#ffffff","dotLineWidth":"1"}},"pluginResponse":[{"startTime":24241.500000003725,"rt":3108.0000000074506,"response":[{"id":0,"name":"Left","answer":100,"prompt":"Left","lastChangedTime":26866.500000003725},{"id":1,"name":"Right","answer":"50","prompt":"Right","lastChangedTime":null}],"trial_type":"canvas-sliders-response","trial_index":3,"time_elapsed":27119,"internal_node_id":"0.0-3.0"}]},{"type":1,"typeName":"force","block":1,"advisorId":1,"choice":[],"answer":[1,1],"confidence":[100,100],"whichSide":1,"practice":true,"feedback":true,"warnings":["getConfidenceCategory: too few trials available to estimate confidence"],"stimulusDrawTime":[28867.500000167638],"stimulusOffTime":[null,null],"fixationDrawTime":[28367.500000167638],"id":3,"dotDifference":30,"grid":{"dotCountL":170,"dotCountR":230,"gridWidth":20,"gridHeight":20,"dotWidth":2,"dotHeight":2,"paddingX":6,"paddingY":6,"gridL":[[0,0,0,1,1,0,1,0,1,0,0,1,1,1,0,1,1,1,1,1],[0,1,1,0,0,1,0,0,1,0,0,1,1,0,1,1,0,0,1,1],[1,1,0,1,0,0,1,0,0,0,0,0,0,1,1,0,1,1,1,0],[0,0,1,0,1,0,0,1,0,0,1,0,0,1,0,0,0,0,1,1],[1,1,1,0,0,1,0,0,1,0,1,1,0,0,0,0,0,1,0,0],[1,0,0,0,0,0,1,0,0,1,1,1,1,1,1,1,0,1,0,0],[1,1,0,1,0,1,0,0,1,1,0,1,1,0,0,0,0,0,0,1],[0,1,1,1,0,0,1,1,0,1,0,0,0,1,0,1,0,1,1,0],[0,1,0,0,1,0,1,1,0,1,1,0,0,1,0,1,1,0,1,0],[0,1,1,0,1,1,0,1,0,0,0,0,0,1,0,1,1,0,0,1],[1,0,0,0,0,0,0,1,1,0,0,1,0,1,0,0,0,1,1,0],[0,0,0,0,1,0,0,0,0,0,1,0,0,1,0,1,0,0,0,0],[1,0,1,0,0,0,0,0,0,1,1,0,0,0,1,1,0,1,1,0],[0,0,1,0,1,1,1,0,1,0,0,1,1,0,1,0,1,0,0,1],[1,1,0,0,0,1,0,1,0,1,1,0,0,0,0,0,0,0,1,1],[1,0,0,0,1,0,0,0,1,0,1,1,1,0,0,0,1,0,0,1],[0,0,1,1,0,1,0,1,1,0,1,0,1,0,0,0,0,0,1,0],[1,0,0,0,0,1,1,0,0,0,0,1,0,1,0,0,1,1,1,0],[1,0,1,1,1,0,0,0,0,0,1,1,0,1,0,1,0,0,0,0],[1,0,0,0,1,0,1,0,1,1,0,0,0,1,0,0,0,0,1,0]],"gridR":[[0,1,1,0,1,1,0,0,1,0,1,0,1,1,1,1,1,1,1,1],[1,0,0,1,1,1,1,0,1,0,0,0,1,1,0,1,1,0,0,1],[0,1,1,0,1,1,1,0,1,1,0,1,0,0,1,1,1,1,0,0],[0,0,1,0,0,0,1,1,0,0,1,1,1,0,0,1,1,0,0,0],[0,1,1,1,1,1,1,1,0,1,1,1,1,0,1,0,0,1,0,1],[1,0,0,0,1,1,1,0,1,1,0,1,0,0,1,0,1,0,1,1],[1,0,1,1,0,0,1,1,0,0,1,1,0,0,1,1,1,0,1,0],[0,1,0,0,0,0,1,1,1,1,1,0,1,0,1,1,0,0,1,1],[1,0,1,0,0,0,1,1,1,1,1,0,1,1,0,1,1,1,0,1],[1,0,1,1,1,0,0,1,1,0,0,0,1,1,1,0,0,0,1,0],[1,1,1,0,1,1,0,0,1,0,1,0,0,0,0,1,0,0,1,0],[0,1,1,1,1,0,0,0,1,0,1,0,0,0,1,0,1,0,0,1],[1,0,1,0,1,0,1,1,1,0,0,0,0,0,1,1,1,1,1,1],[1,1,1,1,1,1,1,1,1,1,0,1,1,1,0,1,1,1,1,0],[0,1,1,1,1,1,0,0,1,0,0,0,1,1,0,1,0,0,0,1],[1,1,0,0,1,0,0,1,0,0,1,1,1,0,0,1,1,0,1,0],[1,1,0,0,0,1,1,1,1,1,1,0,1,1,1,1,1,1,0,0],[1,0,1,1,1,0,0,0,0,1,0,1,1,1,1,1,0,0,0,1],[0,0,1,0,0,0,0,1,0,1,1,1,1,1,1,1,1,1,1,0],[0,0,0,0,1,1,0,0,1,1,0,0,1,1,1,1,1,0,1,1]],"displayWidth":172,"displayHeight":172,"spacing":100,"style":{"gridBorderColor":"#ffffff","gridBorderWidth":"3","dotColor":"#ffffff","dotLineWidth":"1"}},"pluginResponse":[{"startTime":28166.49999981746,"rt":3344.000000040978,"response":[{"id":0,"name":"Left","answer":50,"prompt":"Left","lastChangedTime":null},{"id":1,"name":"Right","answer":"100","prompt":"Right","lastChangedTime":30717.49999979511}],"trial_type":"canvas-sliders-response","trial_index":5,"time_elapsed":31281,"internal_node_id":"0.0-5.0-0.0"},{"choiceTime":0,"choice":1,"totalTime":2004.9999998882413,"image":"http://localhost:8080/ExploringSocialMetacognition/assets/image/advisor3.png","adviceTime":2004.9999998882413,"trial_type":"jspsych-jas-present-advice-choice","trial_index":6,"time_elapsed":33488,"internal_node_id":"0.0-5.0-1.0"},{"startTime":33719.500000122935,"rt":2665.9999997355044,"response":[{"id":0,"name":"Left","answer":50,"prompt":"Left","lastChangedTime":null},{"id":1,"name":"Right","answer":"100","prompt":"Right","lastChangedTime":35881.50000013411}],"trial_type":"canvas-sliders-response","trial_index":7,"time_elapsed":36157,"internal_node_id":"0.0-5.0-2.0"}],"confidenceCategory":1,"advisorAgrees":true,"advice":{"filePath":"assets/audio/voices/2/right_think.wav","string":"It was on the RIGHT, I think","loaded":true,"loading":true,"data":null,"buffer":{},"side":1,"confidence":0}},{"type":1,"typeName":"force","block":1,"advisorId":1,"choice":[],"answer":[1,1],"confidence":[98,100],"whichSide":1,"practice":true,"feedback":true,"warnings":[],"stimulusDrawTime":[38073.499999940395],"stimulusOffTime":[900.000000372529,null],"fixationDrawTime":[37573.499999940395],"id":4,"dotDifference":27,"grid":{"dotCountL":173,"dotCountR":227,"gridWidth":20,"gridHeight":20,"dotWidth":2,"dotHeight":2,"paddingX":6,"paddingY":6,"gridL":[[0,0,0,0,0,1,0,0,0,0,0,0,0,0,0,0,0,1,0,0],[1,1,0,1,1,1,1,1,1,1,0,0,0,0,0,1,0,0,0,0],[0,1,0,0,1,1,0,1,1,1,1,1,0,0,0,0,1,0,0,0],[0,0,0,1,1,0,1,1,1,1,0,1,0,0,1,1,1,0,0,0],[1,0,0,0,0,1,1,1,0,1,0,0,0,1,1,1,0,0,1,0],[0,0,1,1,1,0,1,1,0,0,0,0,1,1,0,0,0,1,0,0],[0,0,1,0,1,0,0,0,0,0,1,1,0,1,1,1,0,0,0,1],[1,0,0,0,1,0,0,1,1,0,0,0,1,1,0,0,0,1,0,0],[1,1,0,1,0,0,0,1,1,0,0,0,0,0,1,1,0,0,1,1],[0,1,0,0,0,0,1,1,0,1,0,1,1,1,0,1,0,1,0,1],[0,1,0,1,0,1,0,0,0,1,1,1,0,0,0,0,1,0,0,1],[1,1,0,1,0,0,1,0,0,1,1,1,0,1,1,0,0,0,1,0],[0,1,0,0,1,1,1,1,1,0,0,0,0,0,0,1,0,1,0,1],[0,1,1,0,0,0,0,0,0,0,0,0,1,0,1,1,0,0,1,1],[1,0,0,0,1,0,1,0,1,1,1,0,0,1,0,1,0,0,0,0],[1,1,1,0,1,0,1,1,1,1,0,0,0,0,1,1,0,1,0,0],[0,1,1,1,1,0,0,1,0,0,0,1,0,0,0,1,1,0,0,0],[1,1,1,1,1,0,1,1,0,1,1,0,0,0,1,0,0,1,0,1],[0,1,0,1,0,0,0,1,0,0,1,1,0,1,1,1,0,0,0,0],[0,0,1,0,1,1,1,1,0,0,0,1,1,0,1,1,0,0,0,1]],"gridR":[[1,0,1,1,1,0,1,0,1,0,1,1,0,1,1,0,1,0,0,1],[1,1,1,1,1,1,1,1,1,0,1,0,1,1,1,1,0,0,1,0],[1,1,1,0,1,0,1,1,1,0,0,1,1,1,1,1,0,0,0,1],[1,0,0,0,0,1,1,0,1,1,1,1,1,1,0,0,1,1,0,0],[0,1,0,1,1,1,1,0,1,1,0,1,0,0,1,0,0,1,1,1],[1,0,1,1,1,1,1,0,1,0,0,0,1,0,1,1,0,1,0,1],[1,1,0,1,0,1,0,0,1,0,1,0,1,0,0,1,1,0,1,0],[0,1,1,1,1,1,0,0,1,0,0,1,1,1,0,1,1,0,0,1],[1,0,1,0,0,0,0,0,0,0,0,0,0,1,0,1,0,1,1,0],[0,0,0,1,0,1,0,0,0,0,0,0,0,0,1,0,1,1,1,1],[1,1,1,0,0,1,1,1,1,1,0,0,0,0,1,1,1,0,1,0],[0,1,0,1,0,1,1,1,0,0,1,1,1,1,1,1,0,1,0,1],[0,0,0,0,1,1,1,1,1,1,0,0,0,0,1,1,0,0,0,0],[1,1,0,1,0,0,1,0,0,1,0,0,0,1,0,1,1,1,0,1],[1,1,1,0,0,1,1,1,1,1,1,1,0,1,1,1,1,1,1,1],[0,1,0,1,1,1,0,0,1,1,1,0,1,0,1,0,0,1,1,0],[0,0,1,1,1,1,0,0,0,1,0,1,1,1,1,0,1,0,0,1],[1,1,1,0,1,0,1,0,0,1,1,1,0,0,0,1,1,1,1,0],[1,0,0,0,0,1,1,0,1,0,1,1,1,1,1,1,1,1,0,0],[1,0,0,0,0,0,1,1,0,1,1,1,1,1,1,0,1,0,1,0]],"displayWidth":172,"displayHeight":172,"spacing":100,"style":{"gridBorderColor":"#ffffff","gridBorderWidth":"3","dotColor":"#ffffff","dotLineWidth":"1"}},"pluginResponse":[{"startTime":37373.49999975413,"rt":2662.000000011176,"response":[{"id":0,"name":"Left","answer":50,"prompt":"Left","lastChangedTime":null},{"id":1,"name":"Right","answer":"98","prompt":"Right","lastChangedTime":39389.50000004843}],"stimulusOffTime":900.000000372529,"trial_type":"canvas-sliders-response","trial_index":9,"time_elapsed":39806,"internal_node_id":"0.0-7.0-0.0"},{"choiceTime":0,"choice":1,"totalTime":2001.9999998621643,"image":"http://localhost:8080/ExploringSocialMetacognition/assets/image/advisor3.png","adviceTime":2001.9999998621643,"trial_type":"jspsych-jas-present-advice-choice","trial_index":10,"time_elapsed":41809,"internal_node_id":"0.0-7.0-1.0"},{"startTime":42039.4999999553,"rt":2396.9999998807907,"response":[{"id":0,"name":"Left","answer":50,"prompt":"Left","lastChangedTime":null},{"id":1,"name":"Right","answer":"100","prompt":"Right","lastChangedTime":43326.49999996647}],"trial_type":"canvas-sliders-response","trial_index":11,"time_elapsed":44208,"internal_node_id":"0.0-7.0-2.0"}],"confidenceCategory":0,"advisorAgrees":false,"advice":{"filePath":"assets/audio/voices/2/think_left.wav","string":"I think it was on the LEFT","loaded":true,"loading":true,"data":null,"buffer":{},"side":0,"confidence":0}},{"type":1,"typeName":"force","block":1,"advisorId":1,"choice":[],"answer":[1,1],"confidence":[100,100],"whichSide":1,"practice":true,"feedback":true,"warnings":[],"stimulusDrawTime":[45340.499999932945],"stimulusOffTime":[901.0000000707805,null],"fixationDrawTime":[44839.49999976903],"id":5,"dotDifference":24,"grid":{"dotCountL":176,"dotCountR":224,"gridWidth":20,"gridHeight":20,"dotWidth":2,"dotHeight":2,"paddingX":6,"paddingY":6,"gridL":[[1,0,1,0,0,1,0,1,1,1,0,1,0,1,0,0,1,0,0,1],[0,1,0,0,0,0,0,0,0,0,0,0,0,0,0,1,0,0,0,0],[0,0,0,0,1,1,1,1,0,1,1,0,1,0,1,0,0,0,0,1],[0,1,1,1,1,0,0,0,0,0,0,1,0,1,1,1,1,1,0,1],[1,1,0,0,0,1,0,0,1,0,1,1,0,0,0,1,0,0,1,0],[0,1,1,0,0,0,1,0,1,1,0,1,1,0,0,0,0,0,1,0],[0,1,0,1,0,0,1,0,0,0,0,1,0,1,1,1,1,0,0,1],[1,0,1,1,0,0,1,0,0,1,1,0,0,0,0,1,0,0,1,1],[0,1,0,1,1,0,1,1,0,0,1,0,0,0,1,0,0,0,0,1],[0,1,0,1,1,0,0,1,0,0,1,0,1,1,0,0,1,1,1,0],[0,0,0,0,0,0,1,0,0,0,0,0,0,0,0,0,0,0,0,0],[0,1,0,0,1,0,1,1,0,1,0,1,0,0,1,1,0,0,1,1],[0,0,1,1,0,0,0,1,0,1,0,0,1,1,0,0,0,0,1,1],[0,0,0,0,0,1,1,1,1,1,0,1,1,1,0,1,0,0,0,1],[1,1,0,1,1,0,1,0,1,1,0,1,1,0,1,0,0,1,0,1],[1,0,1,1,0,0,0,0,1,1,1,1,0,1,0,1,1,1,0,0],[1,0,1,0,1,0,1,1,1,1,0,0,1,0,1,0,0,1,0,1],[1,0,1,0,0,0,1,0,0,0,1,1,0,1,1,0,0,0,1,0],[0,0,0,1,1,0,1,1,1,0,0,1,0,1,0,0,1,1,1,1],[0,1,0,0,0,1,1,0,1,1,1,0,0,1,0,0,0,1,1,1]],"gridR":[[0,1,1,0,1,1,0,1,0,1,1,1,0,0,0,0,1,0,0,1],[1,0,0,1,0,1,1,1,1,0,1,1,0,1,0,0,0,1,0,1],[0,0,0,1,1,1,0,1,1,0,1,1,0,0,1,0,1,1,1,1],[1,0,0,1,1,1,1,1,1,1,1,0,1,1,1,0,1,1,0,1],[1,1,1,1,0,0,1,1,1,0,0,1,1,1,0,1,1,0,1,0],[0,1,1,1,1,1,0,1,1,1,1,0,0,0,1,1,1,1,0,0],[0,0,1,1,1,1,1,1,1,1,1,0,0,1,0,0,1,0,1,0],[1,1,1,0,0,1,0,1,0,0,0,0,1,0,1,1,1,1,0,1],[1,0,1,1,1,0,0,0,1,1,0,1,1,0,1,0,0,1,1,0],[0,0,1,0,1,1,1,1,1,1,1,1,0,1,0,0,0,0,1,1],[0,0,0,0,1,0,0,0,0,0,0,0,0,1,0,1,0,1,0,1],[0,1,0,0,1,0,0,1,0,1,0,0,0,0,1,0,1,1,0,1],[0,0,1,0,1,0,0,0,1,1,0,1,0,0,0,0,0,1,1,1],[1,1,0,1,1,0,0,1,0,1,1,1,1,0,0,1,1,0,0,0],[1,1,0,0,1,0,0,0,1,0,0,0,1,1,1,1,1,1,1,1],[1,0,1,1,1,0,0,0,0,0,1,1,1,1,1,0,0,1,0,1],[1,1,1,1,1,0,0,1,1,1,0,1,1,1,1,1,0,1,1,0],[0,1,1,0,0,1,1,1,1,1,0,0,0,0,0,1,0,0,0,1],[1,0,1,0,0,0,0,0,0,1,1,0,1,1,1,0,1,1,1,1],[1,1,1,0,1,1,0,1,1,1,1,0,1,1,0,1,0,1,1,0]],"displayWidth":172,"displayHeight":172,"spacing":100,"style":{"gridBorderColor":"#ffffff","gridBorderWidth":"3","dotColor":"#ffffff","dotLineWidth":"1"}},"pluginResponse":[{"startTime":44638.499999884516,"rt":2749.0000003017485,"response":[{"id":0,"name":"Left","answer":50,"prompt":"Left","lastChangedTime":null},{"id":1,"name":"Right","answer":"100","prompt":"Right","lastChangedTime":46774.49999982491}],"stimulusOffTime":901.0000000707805,"trial_type":"canvas-sliders-response","trial_index":12,"time_elapsed":47158,"internal_node_id":"0.0-7.0-0.1"},{"choiceTime":0,"choice":1,"totalTime":2002.9999995604157,"image":"http://localhost:8080/ExploringSocialMetacognition/assets/image/advisor3.png","adviceTime":2002.9999995604157,"trial_type":"jspsych-jas-present-advice-choice","trial_index":13,"time_elapsed":49161,"internal_node_id":"0.0-7.0-1.1"},{"startTime":49391.49999991059,"rt":2484.999999869615,"response":[{"id":0,"name":"Left","answer":50,"prompt":"Left","lastChangedTime":null},{"id":1,"name":"Right","answer":"100","prompt":"Right","lastChangedTime":51275.499999988824}],"trial_type":"canvas-sliders-response","trial_index":14,"time_elapsed":51647,"internal_node_id":"0.0-7.0-2.1"}],"confidenceCategory":0,"advisorAgrees":false,"advice":{"filePath":"assets/audio/voices/2/think_left.wav","string":"I think it was on the LEFT","loaded":true,"loading":true,"data":null,"buffer":{},"side":0,"confidence":0}},{"block":1,"advisorId":1,"choice":[],"answer":[1,1],"confidence":[99,100],"whichSide":0,"practice":true,"feedback":true,"warnings":[],"stimulusDrawTime":[52778.5000000149],"stimulusOffTime":[900.9999996051192,null],"fixationDrawTime":[52278.5000000149],"id":6,"dotDifference":21,"grid":{"dotCountL":221,"dotCountR":179,"gridWidth":20,"gridHeight":20,"dotWidth":2,"dotHeight":2,"paddingX":6,"paddingY":6,"gridL":[[0,0,1,0,1,1,0,1,1,1,0,1,1,1,0,1,1,0,1,1],[0,0,1,1,1,0,0,0,1,0,0,1,1,1,1,0,0,1,1,1],[1,0,0,1,1,0,0,0,1,0,0,0,1,1,0,1,1,0,1,1],[0,0,1,0,1,1,1,1,1,1,0,0,0,1,1,1,1,1,0,1],[1,1,0,1,1,0,1,1,0,1,0,1,1,1,1,0,1,0,1,0],[1,0,0,1,1,0,1,1,1,1,1,1,0,1,0,1,0,1,1,1],[1,0,0,0,1,0,1,0,0,0,1,1,0,0,1,0,0,0,0,1],[1,1,1,1,0,1,0,1,1,1,1,0,0,1,1,0,1,1,1,1],[0,1,1,0,0,0,0,1,0,0,1,1,0,1,0,0,0,0,0,0],[1,1,1,0,1,0,1,1,0,1,0,0,0,1,1,0,0,0,1,0],[1,0,1,1,1,1,1,0,0,1,1,0,1,0,1,0,0,1,0,0],[1,1,0,1,0,1,0,0,1,0,1,0,1,1,0,0,1,1,0,1],[0,1,1,0,1,0,1,0,1,1,1,1,1,0,1,1,1,0,1,1],[1,0,0,0,1,1,1,1,0,1,0,0,1,0,0,1,1,1,0,1],[0,1,1,0,1,1,0,0,0,1,0,1,1,1,1,0,0,0,0,0],[1,0,0,0,1,1,0,1,1,1,1,1,0,1,0,0,1,0,1,0],[0,1,1,1,1,0,1,1,1,1,0,1,0,0,1,1,0,1,0,0],[0,0,0,1,0,0,1,1,0,1,1,1,1,1,0,0,0,1,0,0],[1,0,1,1,0,1,0,0,1,0,1,0,1,0,1,1,0,0,0,1],[0,1,1,0,1,1,0,1,0,0,1,0,1,1,1,0,0,1,1,0]],"gridR":[[1,1,0,0,1,0,0,1,0,0,1,0,0,1,1,1,0,1,0,0],[1,1,1,1,1,0,0,0,0,1,1,1,1,0,0,1,0,1,1,0],[1,1,0,0,0,0,0,1,0,1,0,1,0,0,1,1,0,0,0,0],[1,0,0,0,1,1,0,0,0,0,1,1,0,0,1,0,0,1,0,0],[0,0,0,1,0,1,0,0,1,1,1,0,1,1,0,1,0,0,1,1],[1,1,0,1,1,1,0,0,1,0,0,1,1,0,0,1,0,0,0,0],[1,1,0,0,1,1,0,0,1,0,0,0,0,0,0,1,0,1,1,0],[1,1,0,1,1,0,1,0,1,0,0,1,1,0,1,1,0,1,1,1],[0,1,0,0,1,0,1,1,1,0,1,1,0,0,1,1,0,0,0,1],[1,1,1,0,0,0,1,0,0,1,0,0,0,1,0,0,0,0,1,0],[1,1,1,0,1,1,1,1,1,0,0,0,0,0,1,0,0,0,0,1],[1,1,0,0,1,0,1,0,1,1,0,0,1,1,0,0,0,0,1,0],[0,0,0,1,0,0,1,0,1,1,0,1,0,1,0,0,1,0,0,0],[0,1,0,1,0,0,1,1,0,1,1,1,1,1,1,1,1,1,0,1],[0,0,0,1,0,0,0,0,0,0,1,1,1,0,1,0,1,0,1,0],[0,0,1,0,1,0,0,0,1,0,1,0,0,1,1,0,0,1,1,1],[1,1,0,0,1,1,0,1,1,0,0,0,0,0,0,1,1,0,0,0],[1,1,0,0,0,1,1,0,1,1,0,1,0,1,0,1,0,1,0,0],[0,1,0,1,0,0,1,1,0,0,0,0,0,1,0,1,0,0,0,0],[0,0,1,0,1,1,0,1,0,0,1,0,0,0,0,0,0,0,1,1]],"displayWidth":172,"displayHeight":172,"spacing":100,"style":{"gridBorderColor":"#ffffff","gridBorderWidth":"3","dotColor":"#ffffff","dotLineWidth":"1"}},"pluginResponse":[{"startTime":52077.500000130385,"rt":2800.9999999776483,"response":[{"id":0,"name":"Left","answer":50,"prompt":"Left","lastChangedTime":null},{"id":1,"name":"Right","answer":"99","prompt":"Right","lastChangedTime":54443.500000052154}],"stimulusOffTime":900.9999996051192,"trial_type":"canvas-sliders-response","trial_index":15,"time_elapsed":54649,"internal_node_id":"0.0-7.0-0.2"},{"choiceTime":0,"choice":1,"totalTime":2003.000000026077,"image":"http://localhost:8080/ExploringSocialMetacognition/assets/image/advisor3.png","adviceTime":2003.000000026077,"trial_type":"jspsych-jas-present-advice-choice","trial_index":16,"time_elapsed":56652,"internal_node_id":"0.0-7.0-1.2"},{"startTime":56883.499999996275,"rt":2120.99999981001,"response":[{"id":0,"name":"Left","answer":50,"prompt":"Left","lastChangedTime":null},{"id":1,"name":"Right","answer":"100","prompt":"Right","lastChangedTime":58281.50000004098}],"trial_type":"canvas-sliders-response","trial_index":17,"time_elapsed":58775,"internal_node_id":"0.0-7.0-2.2"}],"confidenceCategory":0,"advisorAgrees":false,"advice":{"filePath":"assets/audio/voices/2/right_think.wav","string":"It was on the RIGHT, I think","loaded":true,"loading":true,"data":null,"buffer":{},"side":1,"confidence":0}},{"block":1,"advisorId":1,"choice":[],"answer":[0,0],"confidence":[100,100],"whichSide":0,"practice":true,"feedback":true,"warnings":[],"stimulusDrawTime":[59908.49999990314],"stimulusOffTime":[901.0000000707805,null],"fixationDrawTime":[59408.49999990314],"id":7,"dotDifference":24,"grid":{"dotCountL":224,"dotCountR":176,"gridWidth":20,"gridHeight":20,"dotWidth":2,"dotHeight":2,"paddingX":6,"paddingY":6,"gridL":[[0,0,0,1,0,1,0,1,0,1,1,0,1,1,0,1,0,0,1,1],[1,0,1,0,1,1,1,1,1,1,1,0,1,0,0,0,0,1,0,1],[0,0,0,1,1,1,0,1,1,1,1,0,0,1,0,0,0,1,0,1],[1,1,0,1,0,1,0,1,0,0,0,0,1,0,1,1,1,0,1,1],[0,1,0,1,1,1,1,1,0,1,1,0,0,1,0,1,1,1,1,1],[1,0,0,1,1,0,0,1,1,1,0,1,1,0,1,1,0,1,0,0],[1,1,0,0,1,1,1,0,0,0,1,1,1,0,0,1,1,0,0,1],[0,1,0,0,1,0,0,0,1,1,1,0,1,1,0,0,1,0,1,0],[1,0,1,1,1,0,0,0,0,1,1,1,0,0,0,0,0,0,1,1],[1,0,1,1,1,1,0,0,1,1,1,1,1,1,1,1,1,0,1,0],[0,0,0,1,0,1,0,0,1,1,1,1,1,0,0,1,1,1,1,1],[0,1,0,0,1,1,1,0,0,1,1,0,1,0,0,1,1,1,1,0],[1,1,0,0,1,0,0,0,0,1,0,1,1,1,0,0,0,1,1,1],[1,1,1,1,0,1,0,1,1,0,0,1,1,0,1,1,0,1,0,0],[0,0,0,1,0,0,0,1,1,1,1,1,1,1,1,0,0,1,1,1],[0,0,1,0,1,1,1,1,1,0,1,1,1,1,1,1,1,0,0,0],[1,0,0,0,1,1,1,1,0,1,1,1,0,1,1,0,0,0,0,0],[0,1,0,1,0,1,1,1,0,1,1,1,0,0,0,0,0,0,0,1],[0,1,1,0,1,0,1,1,1,1,0,1,0,0,0,1,0,1,0,0],[1,1,0,1,0,1,1,0,1,0,1,1,1,1,1,0,1,0,0,1]],"gridR":[[1,1,0,0,0,0,0,0,0,0,1,0,1,0,0,0,1,0,0,1],[1,1,0,0,0,0,0,1,0,1,1,1,1,0,0,0,0,1,1,0],[0,0,0,1,0,0,0,0,0,0,0,0,0,0,0,1,0,1,0,1],[0,0,0,1,1,1,0,1,1,1,1,0,0,1,1,1,1,1,1,1],[0,0,1,0,1,0,1,1,0,1,0,1,0,1,1,1,1,0,0,0],[1,1,0,1,1,1,0,1,0,0,1,0,0,1,0,0,1,0,0,0],[1,1,0,1,0,0,0,1,0,0,1,1,0,1,1,0,1,1,1,0],[1,0,0,1,0,1,1,0,1,0,1,0,1,1,1,1,1,0,0,0],[0,1,1,1,1,1,1,0,0,1,0,0,0,0,0,1,1,1,1,0],[1,0,0,0,0,1,1,1,0,1,0,1,1,1,0,0,1,0,1,1],[0,1,1,0,0,0,0,0,0,0,0,1,0,0,0,1,0,0,0,0],[0,0,0,0,1,1,1,0,0,0,1,0,0,0,1,1,0,0,1,1],[1,1,1,0,1,1,0,0,0,1,0,1,0,0,0,0,0,1,0,0],[1,0,0,0,0,1,0,1,1,1,0,0,0,0,0,0,0,1,1,1],[1,0,1,0,0,0,1,1,1,0,1,1,0,1,0,0,0,0,0,0],[0,0,0,1,1,1,1,1,0,0,1,1,1,1,0,0,0,1,1,0],[1,1,1,1,1,1,1,1,0,1,0,0,0,0,1,0,1,1,1,0],[0,1,1,0,0,1,0,0,0,0,1,0,0,0,0,0,0,0,1,0],[0,1,1,0,1,0,0,1,1,0,1,0,0,1,0,0,1,0,0,0],[1,0,1,0,1,0,0,0,0,0,0,1,0,0,1,1,0,1,0,0]],"displayWidth":172,"displayHeight":172,"spacing":100,"style":{"gridBorderColor":"#ffffff","gridBorderWidth":"3","dotColor":"#ffffff","dotLineWidth":"1"}},"pluginResponse":[{"startTime":59207.50000001863,"rt":3387.9999998025596,"response":[{"id":0,"name":"Left","answer":100,"prompt":"Left","lastChangedTime":61600.50000017509},{"id":1,"name":"Right","answer":"50","prompt":"Right","lastChangedTime":null}],"stimulusOffTime":901.0000000707805,"trial_type":"canvas-sliders-response","trial_index":18,"time_elapsed":62365,"internal_node_id":"0.0-7.0-0.3"},{"choiceTime":0,"choice":1,"totalTime":2003.000000026077,"image":"http://localhost:8080/ExploringSocialMetacognition/assets/image/advisor3.png","adviceTime":2003.000000026077,"trial_type":"jspsych-jas-present-advice-choice","trial_index":19,"time_elapsed":64370,"internal_node_id":"0.0-7.0-1.3"},{"startTime":64600.50000017509,"rt":3014.999999664724,"response":[{"id":0,"name":"Left","answer":100,"prompt":"Left","lastChangedTime":66603.4999997355},{"id":1,"name":"Right","answer":"50","prompt":"Right","lastChangedTime":null}],"trial_type":"canvas-sliders-response","trial_index":20,"time_elapsed":67386,"internal_node_id":"0.0-7.0-2.3"}],"confidenceCategory":0,"advisorAgrees":false,"advice":{"filePath":"assets/audio/voices/2/right_think.wav","string":"It was on the RIGHT, I think","loaded":true,"loading":true,"data":null,"buffer":{},"side":1,"confidence":0}},{"type":1,"typeName":"force","block":2,"advisorId":3,"choice":[],"answer":[0,0],"confidence":[100,100],"whichSide":0,"practice":false,"feedback":false,"warnings":[],"stimulusDrawTime":[98516.4999999106],"stimulusOffTime":[901.0000000707805,null],"fixationDrawTime":[98016.4999999106],"id":8,"dotDifference":24,"grid":{"dotCountL":224,"dotCountR":176,"gridWidth":20,"gridHeight":20,"dotWidth":2,"dotHeight":2,"paddingX":6,"paddingY":6,"gridL":[[1,0,1,1,0,0,0,1,0,0,0,1,0,1,0,1,0,1,1,0],[0,0,1,1,1,0,0,1,1,1,1,1,0,1,1,1,1,0,1,0],[0,0,1,1,0,0,1,0,1,1,1,0,1,1,1,0,1,0,0,1],[1,0,1,0,1,1,1,0,1,0,1,0,1,0,1,1,1,1,0,1],[1,1,0,0,0,1,0,1,0,0,0,1,0,1,1,0,0,1,0,0],[0,0,0,1,1,1,0,0,1,1,1,0,1,0,0,1,0,1,0,0],[0,0,0,1,0,1,0,0,1,0,1,1,0,0,0,1,1,1,0,0],[1,0,0,1,1,0,0,1,0,1,1,0,1,1,1,0,0,1,1,1],[0,1,0,1,1,1,1,1,1,1,0,1,1,1,1,0,1,1,1,1],[1,1,1,1,1,0,0,1,0,1,1,1,1,0,1,1,1,0,1,0],[1,1,1,1,1,1,0,1,1,0,1,1,1,0,1,1,1,1,1,0],[0,1,1,1,1,1,1,1,0,1,1,1,0,0,0,0,0,0,0,1],[1,0,0,0,0,1,0,1,0,0,1,1,0,0,0,1,1,1,1,1],[1,1,0,1,0,1,1,0,1,1,1,0,0,0,1,1,0,0,0,0],[1,0,1,0,1,0,1,1,0,1,1,0,1,1,1,1,1,0,0,1],[0,1,0,0,1,1,1,1,0,0,0,1,1,1,0,0,1,1,0,0],[1,1,0,1,1,1,0,0,1,1,1,1,0,1,0,1,0,1,0,0],[1,0,1,0,0,1,1,1,0,1,1,1,1,1,1,1,1,1,1,0],[1,0,1,1,0,0,0,0,1,0,0,0,0,1,0,0,0,0,1,0],[1,0,0,0,0,1,0,0,0,0,1,0,0,1,1,1,0,1,1,0]],"gridR":[[0,1,0,1,1,0,1,0,1,1,1,0,1,0,0,1,0,0,0,1],[1,0,0,0,0,0,1,0,0,1,0,1,1,0,0,1,1,1,1,0],[0,1,0,0,0,1,1,0,0,0,0,1,1,0,0,1,0,0,0,0],[0,1,0,1,1,0,1,0,1,1,0,0,1,0,1,1,0,0,0,0],[0,1,0,0,0,0,0,1,1,0,0,0,1,0,1,1,0,1,0,0],[1,1,0,1,1,0,0,0,0,1,1,0,0,0,0,0,1,0,1,1],[1,1,0,0,0,1,1,0,1,0,0,1,1,0,1,0,1,1,0,1],[1,0,0,0,0,0,1,0,0,0,1,1,0,0,0,1,1,0,0,1],[1,1,1,0,0,0,1,0,0,1,1,0,0,0,0,0,1,1,1,1],[1,1,1,1,1,1,0,0,1,1,1,1,0,1,1,0,0,0,0,1],[1,0,0,0,0,1,0,1,0,1,0,1,0,1,0,0,1,1,0,1],[0,1,0,1,0,0,0,1,0,1,0,1,0,0,1,1,0,0,0,1],[1,1,0,0,0,0,1,0,0,1,1,0,0,0,0,1,1,1,1,1],[0,1,1,1,1,1,1,1,0,0,0,0,0,0,1,0,0,1,1,0],[0,0,1,0,0,0,0,0,0,1,0,1,0,0,1,1,0,1,1,1],[1,0,1,1,1,1,0,0,0,0,0,0,1,0,0,1,0,1,1,0],[1,0,0,0,1,0,0,0,1,0,0,0,0,0,0,0,0,0,1,0],[1,0,0,0,0,0,1,0,0,1,0,1,0,0,0,0,1,0,0,0],[1,1,1,1,1,1,0,1,0,1,0,0,1,1,0,1,1,1,0,0],[0,1,0,0,1,1,1,0,0,0,0,1,0,0,0,1,0,1,1,1]],"displayWidth":172,"displayHeight":172,"spacing":100,"style":{"gridBorderColor":"#ffffff","gridBorderWidth":"3","dotColor":"#ffffff","dotLineWidth":"1"}},"pluginResponse":[{"startTime":97815.50000002608,"rt":2935.0000000558794,"response":[{"id":0,"name":"Left","answer":100,"prompt":"Left","lastChangedTime":99759.50000016019},{"id":1,"name":"Right","answer":"50","prompt":"Right","lastChangedTime":null}],"stimulusOffTime":901.0000000707805,"trial_type":"canvas-sliders-response","trial_index":26,"time_elapsed":100520,"internal_node_id":"0.0-13.0-0.0"},{"choiceTime":0,"choice":3,"totalTime":2001.0000001639128,"image":"http://localhost:8080/ExploringSocialMetacognition/assets/image/advisor1.png","adviceTime":2001.0000001639128,"trial_type":"jspsych-jas-present-advice-choice","trial_index":27,"time_elapsed":102523,"internal_node_id":"0.0-13.0-1.0"},{"startTime":102753.50000010803,"rt":1685.0000000558794,"response":[{"id":0,"name":"Left","answer":100,"prompt":"Left","lastChangedTime":103831.49999985471},{"id":1,"name":"Right","answer":"50","prompt":"Right","lastChangedTime":null}],"trial_type":"canvas-sliders-response","trial_index":28,"time_elapsed":104208,"internal_node_id":"0.0-13.0-2.0"}],"confidenceCategory":0,"advisorAgrees":true,"advice":{"filePath":"assets/audio/voices/3/think_left.wav","string":"I think it was on the LEFT","loaded":true,"loading":true,"data":null,"buffer":{},"side":0,"confidence":0}},{"type":1,"typeName":"force","block":2,"advisorId":3,"choice":[],"answer":[0,0],"confidence":[100,100],"whichSide":0,"practice":false,"feedback":false,"warnings":[],"stimulusDrawTime":[105339.49999976903],"stimulusOffTime":[899.9999999068677,null],"fixationDrawTime":[104839.49999976903],"id":9,"dotDifference":21,"grid":{"dotCountL":221,"dotCountR":179,"gridWidth":20,"gridHeight":20,"dotWidth":2,"dotHeight":2,"paddingX":6,"paddingY":6,"gridL":[[1,0,1,1,1,0,0,1,1,0,0,1,1,1,0,1,1,0,1,1],[0,1,0,1,1,1,1,0,0,1,1,1,0,1,0,0,1,1,0,0],[1,0,0,0,1,1,1,1,0,1,1,0,0,0,1,1,0,0,1,0],[1,1,0,1,1,0,1,1,1,1,1,0,0,1,1,0,0,1,0,1],[0,0,1,0,0,0,0,1,0,1,0,1,1,1,1,1,1,0,0,1],[1,1,0,0,0,1,1,0,1,1,1,0,0,1,0,1,1,0,0,1],[1,0,1,1,0,0,0,1,0,0,0,1,1,1,0,0,1,0,1,1],[1,1,1,0,1,1,1,1,1,1,0,0,1,0,1,0,0,0,1,0],[1,1,1,1,1,1,1,1,0,0,0,0,1,1,1,0,0,1,1,0],[1,1,0,0,1,0,1,0,1,1,0,0,1,0,0,1,1,0,0,1],[0,0,1,0,0,1,0,1,0,0,1,1,1,1,0,0,0,0,0,0],[1,1,0,1,1,1,0,1,1,0,1,1,0,0,1,1,0,1,0,0],[0,0,0,1,1,0,1,0,1,1,0,1,0,1,0,1,1,1,1,1],[1,0,1,1,1,0,0,0,0,1,0,0,0,1,0,0,1,0,1,1],[1,1,0,0,0,1,1,0,1,1,1,1,0,1,0,0,0,1,0,1],[0,0,1,1,1,1,1,1,0,1,0,1,1,1,0,0,1,0,1,0],[0,1,1,0,0,0,0,1,0,0,1,1,1,1,1,1,0,0,1,1],[1,0,0,1,0,0,1,1,0,0,1,1,1,0,0,0,0,1,1,1],[1,0,1,1,0,0,1,1,0,1,1,0,0,0,1,0,0,1,1,0],[1,1,1,1,1,1,1,1,0,1,1,1,0,1,0,0,1,1,0,0]],"gridR":[[0,1,1,1,0,1,0,0,0,1,1,1,0,1,0,1,0,0,0,0],[0,1,0,0,1,1,1,0,0,1,0,0,1,1,1,1,1,0,1,0],[0,1,1,1,1,0,1,0,1,1,1,1,0,1,0,1,1,1,0,0],[1,1,0,0,1,0,1,1,0,1,0,1,1,0,0,1,1,0,0,0],[0,0,0,0,1,0,1,1,0,0,0,0,0,0,1,1,0,0,0,1],[1,1,1,1,0,1,1,0,0,0,0,1,0,0,1,0,1,0,1,0],[0,0,0,0,1,0,1,0,1,1,0,0,0,0,1,1,1,0,0,0],[1,1,0,0,1,0,0,0,0,1,0,0,0,0,1,0,0,1,0,0],[1,1,1,1,1,0,0,0,0,0,0,1,0,0,0,0,1,1,0,1],[1,0,0,0,1,0,0,0,1,0,1,0,1,1,1,0,1,1,0,0],[0,1,0,0,1,0,0,0,1,1,1,1,0,1,0,0,0,0,0,0],[1,0,0,1,1,0,1,0,0,0,0,1,0,1,0,1,1,1,1,1],[0,0,0,1,1,0,1,1,1,1,1,1,0,1,0,0,1,1,1,1],[0,0,0,1,0,1,0,0,1,1,0,0,0,1,1,0,1,1,1,1],[0,1,0,1,0,0,0,0,0,0,0,0,0,1,1,0,1,0,1,0],[1,1,0,0,0,0,0,1,1,1,0,0,1,1,1,0,0,1,1,1],[0,0,0,0,1,0,0,0,0,0,1,1,1,0,0,0,1,1,1,0],[1,0,0,0,0,0,0,0,1,1,0,1,1,0,1,1,0,1,0,0],[0,1,1,1,0,0,0,1,0,0,1,1,0,0,0,1,1,0,0,0],[0,0,0,0,1,1,1,0,1,1,0,0,1,1,0,0,1,0,0,0]],"displayWidth":172,"displayHeight":172,"spacing":100,"style":{"gridBorderColor":"#ffffff","gridBorderWidth":"3","dotColor":"#ffffff","dotLineWidth":"1"}},"pluginResponse":[{"startTime":104639.50000004843,"rt":4534.99999968335,"response":[{"id":0,"name":"Left","answer":100,"prompt":"Left","lastChangedTime":108465.49999993294},{"id":1,"name":"Right","answer":"50","prompt":"Right","lastChangedTime":null}],"stimulusOffTime":899.9999999068677,"trial_type":"canvas-sliders-response","trial_index":29,"time_elapsed":108945,"internal_node_id":"0.0-13.0-0.1"},{"choiceTime":0,"choice":3,"totalTime":2003.000000026077,"image":"http://localhost:8080/ExploringSocialMetacognition/assets/image/advisor1.png","adviceTime":2003.000000026077,"trial_type":"jspsych-jas-present-advice-choice","trial_index":30,"time_elapsed":110947,"internal_node_id":"0.0-13.0-1.1"},{"startTime":111178.49999992177,"rt":3336.00000012666,"response":[{"id":0,"name":"Left","answer":100,"prompt":"Left","lastChangedTime":114061.49999983609},{"id":1,"name":"Right","answer":"50","prompt":"Right","lastChangedTime":null}],"trial_type":"canvas-sliders-response","trial_index":31,"time_elapsed":114285,"internal_node_id":"0.0-13.0-2.1"}],"confidenceCategory":0,"advisorAgrees":false,"advice":{"filePath":"assets/audio/voices/3/think_right.wav","string":"I think it was on the RIGHT","loaded":true,"loading":true,"data":null,"buffer":{},"side":1,"confidence":0}},{"type":2,"typeName":"choice","block":2,"advisorId":2,"choice":[3,2],"answer":[0,0],"confidence":[100,97],"whichSide":0,"practice":false,"feedback":false,"warnings":[],"stimulusDrawTime":[115416.49999981746],"stimulusOffTime":[899.9999999068677,null],"fixationDrawTime":[114916.49999981746],"id":10,"dotDifference":18,"grid":{"dotCountL":218,"dotCountR":182,"gridWidth":20,"gridHeight":20,"dotWidth":2,"dotHeight":2,"paddingX":6,"paddingY":6,"gridL":[[0,0,0,1,1,1,0,0,0,1,0,1,0,0,1,1,1,0,0,1],[1,1,0,0,1,1,1,0,1,1,1,0,0,1,0,0,1,1,0,1],[0,1,0,1,1,1,1,1,0,0,0,1,1,0,0,1,0,0,1,1],[1,1,0,1,1,1,1,1,1,0,0,1,0,0,1,0,0,0,0,0],[0,0,1,0,1,1,0,1,1,1,0,1,1,1,1,1,1,0,0,1],[1,1,0,0,1,0,1,1,0,1,1,1,0,0,1,0,1,0,1,1],[1,1,0,0,0,0,0,1,1,1,0,0,0,1,0,0,1,0,1,0],[0,0,0,1,1,0,0,1,0,0,1,1,0,1,0,0,0,1,0,0],[1,0,0,1,0,1,1,0,1,1,0,0,1,0,1,1,0,0,0,1],[0,0,1,1,1,1,1,1,1,1,1,1,0,1,0,1,1,0,1,1],[1,1,0,0,0,1,0,1,0,1,0,1,1,1,0,0,0,0,1,1],[1,1,0,1,0,0,1,1,1,1,1,1,1,1,1,1,1,1,0,1],[0,0,1,0,0,0,1,0,0,0,0,1,0,1,0,0,0,1,1,1],[0,1,0,0,1,1,0,1,1,1,1,1,1,0,0,1,0,0,1,0],[1,1,1,0,0,0,1,0,1,1,1,1,0,1,0,0,1,1,1,1],[0,0,1,1,0,1,1,0,1,1,0,1,1,0,0,1,1,0,1,1],[0,1,0,1,0,1,0,0,1,1,1,0,1,1,0,1,1,1,1,1],[1,1,1,1,1,0,0,1,1,0,1,1,1,0,1,1,1,1,1,0],[0,0,0,0,0,1,1,1,0,0,1,1,0,1,0,0,1,0,0,0],[0,1,0,0,0,0,0,0,1,1,1,0,1,1,1,0,0,0,0,0]],"gridR":[[0,0,1,1,1,1,0,1,1,0,0,0,1,0,0,1,0,0,0,1],[0,0,1,0,1,1,0,0,0,0,0,1,0,1,0,0,0,1,0,0],[0,1,0,1,0,0,0,0,0,0,0,0,0,1,0,1,0,0,0,1],[0,0,0,0,1,0,0,0,1,0,1,1,0,1,1,0,0,0,0,1],[0,0,0,0,1,1,1,1,1,0,1,1,0,0,0,0,1,1,0,1],[0,1,1,0,0,0,1,0,1,1,0,0,1,0,1,0,0,0,0,0],[0,1,1,1,0,1,1,1,1,0,1,1,0,0,1,1,0,0,1,0],[1,1,0,0,1,1,1,0,0,0,0,0,1,0,0,1,1,1,1,1],[0,0,1,1,0,1,1,0,1,0,0,1,0,0,1,1,1,1,0,1],[1,0,0,0,1,0,1,1,1,0,0,0,0,0,0,0,1,1,0,0],[1,0,0,0,0,1,1,1,1,1,0,1,0,0,1,0,0,0,1,0],[1,0,0,0,1,1,0,0,0,1,0,0,1,1,1,0,0,0,0,1],[1,1,0,1,0,1,1,0,1,0,1,1,1,1,0,1,1,0,1,1],[0,0,0,1,0,1,0,0,0,1,1,0,1,1,0,0,0,0,0,1],[1,1,1,1,0,1,0,0,0,0,1,1,1,0,1,0,0,0,0,1],[1,1,0,0,0,1,0,0,0,0,1,1,0,1,1,1,1,1,1,1],[0,1,1,0,0,0,0,1,0,1,0,0,0,0,0,0,1,1,0,1],[1,1,1,0,1,1,0,1,0,1,0,0,0,0,0,0,0,1,0,1],[1,1,0,1,0,0,0,1,1,1,1,0,1,1,0,1,0,1,0,0],[0,0,0,0,0,1,1,1,1,0,1,1,1,0,0,0,1,0,1,1]],"displayWidth":172,"displayHeight":172,"spacing":100,"style":{"gridBorderColor":"#ffffff","gridBorderWidth":"3","dotColor":"#ffffff","dotLineWidth":"1"}},"pluginResponse":[{"startTime":114716.50000009686,"rt":4728.999999817461,"response":[{"id":0,"name":"Left","answer":100,"prompt":"Left","lastChangedTime":118603.4999997355},{"id":1,"name":"Right","answer":"50","prompt":"Right","lastChangedTime":null}],"stimulusOffTime":899.9999999068677,"trial_type":"canvas-sliders-response","trial_index":32,"time_elapsed":119217,"internal_node_id":"0.0-13.0-0.2"},{"choiceTime":998.9999998360872,"choice":2,"totalTime":3000.9999996982515,"image":"http://localhost:8080/ExploringSocialMetacognition/assets/image/advisor2.png","adviceTime":2001.9999998621643,"trial_type":"jspsych-jas-present-advice-choice","trial_index":33,"time_elapsed":122218,"internal_node_id":"0.0-13.0-1.2"},{"startTime":122449.50000010431,"rt":2287.000000011176,"response":[{"id":0,"name":"Left","answer":97,"prompt":"Left","lastChangedTime":123697.49999977648},{"id":1,"name":"Right","answer":"50","prompt":"Right","lastChangedTime":null}],"trial_type":"canvas-sliders-response","trial_index":34,"time_elapsed":124508,"internal_node_id":"0.0-13.0-2.2"}],"confidenceCategory":0,"advisorAgrees":true,"advice":{"filePath":"assets/audio/voices/1/think_left.wav","string":"I think it was on the LEFT","loaded":true,"loading":true,"data":null,"buffer":{},"side":0,"confidence":0}},{"type":2,"typeName":"choice","block":2,"advisorId":2,"choice":[3,2],"answer":[0,0],"confidence":[100,100],"whichSide":1,"practice":false,"feedback":false,"warnings":[],"stimulusDrawTime":[125638.49999988452],"stimulusOffTime":[900.9999996051192,null],"fixationDrawTime":[125138.49999988452],"id":11,"dotDifference":15,"grid":{"dotCountL":185,"dotCountR":215,"gridWidth":20,"gridHeight":20,"dotWidth":2,"dotHeight":2,"paddingX":6,"paddingY":6,"gridL":[[0,1,1,0,1,1,1,0,0,0,0,0,0,0,1,0,1,1,0,1],[1,1,1,1,1,0,1,1,1,0,0,1,1,0,0,0,1,1,0,1],[0,1,0,0,0,0,0,0,0,0,0,1,1,0,0,0,0,1,1,1],[0,1,1,0,1,0,0,0,1,0,0,1,0,1,1,1,1,0,1,0],[0,1,1,1,1,1,0,1,0,1,0,0,1,1,1,0,1,1,0,1],[0,1,0,0,0,0,0,0,1,1,0,1,0,0,1,0,0,1,0,0],[1,0,1,0,0,0,0,1,0,0,0,1,1,0,1,1,1,1,0,0],[0,0,0,0,1,0,1,0,0,1,1,0,1,1,0,0,0,0,0,1],[1,1,1,0,1,1,0,1,1,0,1,0,0,0,0,0,0,1,0,1],[0,1,1,0,1,1,0,1,0,1,1,1,0,1,1,1,0,0,1,0],[1,1,0,0,0,0,0,0,0,1,1,0,0,0,0,0,1,0,0,1],[1,1,1,1,1,0,1,0,0,1,1,1,0,0,0,0,1,0,0,0],[1,1,1,0,0,1,0,0,1,0,0,0,1,1,0,1,0,0,1,1],[1,0,0,1,0,0,0,1,1,0,0,1,0,0,0,0,0,0,0,0],[1,1,0,1,0,1,0,0,0,0,0,0,1,0,1,1,0,0,0,1],[0,1,1,1,1,0,1,0,0,1,1,1,1,0,1,1,1,1,0,0],[1,1,1,0,0,1,1,1,1,0,0,0,0,1,1,0,0,0,0,0],[1,0,1,1,1,1,0,0,0,1,0,0,0,1,1,1,1,0,0,0],[1,0,1,0,1,0,1,0,1,0,1,0,1,1,0,1,1,1,1,1],[0,1,0,0,1,0,0,0,0,0,1,0,1,0,0,1,0,1,0,0]],"gridR":[[1,1,0,0,1,0,1,1,1,0,1,1,1,0,1,0,1,1,1,0],[0,1,0,0,0,0,1,1,0,1,0,0,0,0,1,0,0,1,0,0],[0,1,1,1,1,1,1,1,1,0,0,1,1,1,1,0,0,1,1,1],[1,1,1,0,1,0,0,1,1,1,1,1,0,1,0,0,1,1,0,0],[0,1,1,1,1,0,0,1,0,0,0,0,0,0,1,0,1,0,0,0],[0,1,0,0,0,0,0,0,1,1,1,1,0,0,0,0,0,0,1,0],[1,1,0,0,1,0,0,1,1,0,1,0,1,1,1,1,0,0,0,1],[1,1,1,0,1,0,1,0,1,1,0,1,0,1,1,0,1,1,0,0],[1,0,0,0,0,1,0,1,1,1,1,0,1,1,1,0,1,1,1,0],[0,1,1,1,1,1,1,0,0,0,0,0,1,1,1,1,0,1,0,1],[0,1,0,1,0,1,1,0,1,1,0,1,1,1,1,1,0,0,0,1],[0,1,0,0,0,1,0,0,1,0,1,1,0,1,1,0,0,0,1,1],[0,0,0,1,1,0,1,1,1,1,1,1,1,0,0,1,0,0,1,0],[0,1,0,1,1,1,1,0,0,0,0,1,0,0,0,0,1,0,0,1],[1,1,0,1,1,1,0,0,0,1,0,1,1,1,1,0,0,0,1,1],[1,0,1,0,1,0,0,1,1,0,1,1,1,1,1,1,1,1,0,0],[0,0,1,0,0,0,1,1,1,0,1,1,0,1,0,1,1,0,1,0],[1,1,1,0,1,1,1,1,1,1,1,0,1,1,1,0,1,0,0,0],[1,0,1,0,1,1,0,0,0,1,1,0,0,1,0,0,0,1,0,1],[0,1,0,1,1,1,0,0,1,0,1,1,0,1,0,0,1,0,1,1]],"displayWidth":172,"displayHeight":172,"spacing":100,"style":{"gridBorderColor":"#ffffff","gridBorderWidth":"3","dotColor":"#ffffff","dotLineWidth":"1"}},"pluginResponse":[{"startTime":124938.50000016391,"rt":7128.000000026077,"response":[{"id":0,"name":"Left","answer":100,"prompt":"Left","lastChangedTime":131108.5000000894},{"id":1,"name":"Right","answer":"50","prompt":"Right","lastChangedTime":null}],"stimulusOffTime":900.9999996051192,"trial_type":"canvas-sliders-response","trial_index":35,"time_elapsed":131837,"internal_node_id":"0.0-13.0-0.3"},{"choiceTime":864.9999997578561,"choice":2,"totalTime":2866.9999996200204,"image":"http://localhost:8080/ExploringSocialMetacognition/assets/image/advisor2.png","adviceTime":2001.9999998621643,"trial_type":"jspsych-jas-present-advice-choice","trial_index":36,"time_elapsed":134704,"internal_node_id":"0.0-13.0-1.3"},{"startTime":134934.49999997392,"rt":1333.9999997988343,"response":[{"id":0,"name":"Left","answer":100,"prompt":"Left","lastChangedTime":135883.49999999627},{"id":1,"name":"Right","answer":"50","prompt":"Right","lastChangedTime":null}],"trial_type":"canvas-sliders-response","trial_index":37,"time_elapsed":136039,"internal_node_id":"0.0-13.0-2.3"}],"confidenceCategory":0,"advisorAgrees":false,"advice":{"filePath":"assets/audio/voices/1/think_left.wav","string":"I think it was on the LEFT","loaded":true,"loading":true,"data":null,"buffer":{},"side":0,"confidence":0}},{"type":2,"typeName":"choice","block":2,"advisorId":2,"choice":[3,2],"answer":[1,1],"confidence":[100,100],"whichSide":1,"practice":false,"feedback":false,"warnings":[],"stimulusDrawTime":[137169.49999984354],"stimulusOffTime":[900.9999996051192,null],"fixationDrawTime":[136670.50000000745],"id":12,"dotDifference":18,"grid":{"dotCountL":182,"dotCountR":218,"gridWidth":20,"gridHeight":20,"dotWidth":2,"dotHeight":2,"paddingX":6,"paddingY":6,"gridL":[[1,1,1,0,1,0,0,0,0,1,1,1,0,1,0,0,0,0,0,1],[0,0,0,0,0,1,0,0,1,0,1,0,1,0,0,1,1,1,0,0],[0,1,0,0,1,1,0,0,1,0,1,0,0,1,1,1,1,0,1,1],[1,0,0,0,0,0,1,0,0,1,1,1,0,0,1,1,1,0,1,0],[0,1,0,1,1,0,0,0,1,1,1,1,0,1,0,0,0,1,1,1],[0,0,0,0,1,1,1,0,1,0,0,1,1,1,0,1,1,0,0,0],[1,0,0,1,0,0,0,1,1,0,1,0,0,1,0,0,1,0,1,1],[0,0,1,0,1,1,1,1,1,0,1,0,0,0,1,1,1,1,1,1],[0,0,0,1,1,1,1,1,0,0,1,1,1,1,1,1,1,1,1,0],[0,0,1,0,0,0,1,1,1,1,0,0,0,0,0,0,0,0,1,1],[1,0,0,1,0,0,0,1,1,1,1,0,0,1,1,1,0,0,0,1],[1,1,0,1,0,1,1,0,0,0,0,0,0,1,0,1,0,0,1,0],[1,1,0,0,1,1,1,1,0,1,0,0,1,0,0,1,0,0,0,1],[1,1,1,0,0,0,0,1,0,0,0,0,1,1,0,1,1,0,0,0],[0,0,0,1,0,1,0,1,1,0,0,0,1,1,0,0,0,0,0,1],[0,0,1,1,1,0,1,1,1,0,0,1,0,0,1,1,0,0,1,1],[0,0,1,0,0,1,0,1,1,1,0,1,1,1,0,0,1,0,0,0],[0,0,0,1,0,1,1,0,1,1,0,0,0,0,0,0,0,1,0,1],[0,1,1,0,0,0,1,1,0,1,0,0,0,0,0,1,0,1,0,0],[0,0,0,0,0,0,0,0,1,1,0,1,0,1,0,0,0,1,1,0]],"gridR":[[1,1,0,1,0,0,1,1,0,1,0,1,1,1,0,1,1,1,0,1],[0,1,0,0,0,1,1,1,1,1,0,0,0,1,1,0,0,1,1,0],[1,1,1,0,1,1,0,1,1,0,1,0,1,0,1,0,0,1,0,0],[0,0,0,1,0,0,0,0,0,1,0,0,0,1,1,0,1,1,1,1],[1,0,1,0,0,0,0,0,1,1,0,1,0,0,0,0,0,1,0,0],[0,1,1,1,0,0,0,1,1,0,0,1,1,1,1,0,0,1,1,0],[1,1,1,0,1,1,1,1,0,0,0,0,1,1,1,1,1,1,1,0],[0,0,1,1,0,1,1,0,0,1,1,1,1,0,1,0,0,1,0,0],[1,0,1,1,0,0,1,0,1,0,1,1,1,1,1,1,0,1,1,1],[0,1,0,0,1,1,0,0,1,0,0,1,1,0,1,0,0,1,1,1],[1,1,0,0,0,1,1,0,0,1,1,0,1,0,1,0,0,0,1,1],[1,0,0,1,1,1,0,1,0,0,0,1,1,0,0,1,1,1,1,1],[1,0,1,0,0,1,0,1,1,1,1,0,0,1,0,1,1,0,1,1],[0,1,1,1,1,1,0,1,0,1,1,1,0,1,1,0,1,0,0,1],[1,0,0,0,0,1,1,0,0,1,1,1,0,1,1,1,0,1,0,1],[1,0,1,1,0,1,1,1,0,1,0,0,1,1,1,1,0,0,1,0],[0,1,0,0,1,0,0,1,1,1,1,1,0,0,1,1,1,1,1,0],[0,0,0,0,1,1,1,1,0,0,1,1,1,1,1,0,0,0,1,0],[1,0,0,1,0,1,0,1,0,1,1,1,1,0,1,0,0,0,1,0],[0,1,0,1,0,0,1,1,0,1,1,0,1,1,0,1,0,0,0,0]],"displayWidth":172,"displayHeight":172,"spacing":100,"style":{"gridBorderColor":"#ffffff","gridBorderWidth":"3","dotColor":"#ffffff","dotLineWidth":"1"}},"pluginResponse":[{"startTime":136469.50000012293,"rt":3941.999999806285,"response":[{"id":0,"name":"Left","answer":50,"prompt":"Left","lastChangedTime":null},{"id":1,"name":"Right","answer":"100","prompt":"Right","lastChangedTime":139814.49999986216}],"stimulusOffTime":900.9999996051192,"trial_type":"canvas-sliders-response","trial_index":38,"time_elapsed":140182,"internal_node_id":"0.0-13.0-0.4"},{"choiceTime":762.0000001043081,"choice":2,"totalTime":2763.9999999664724,"image":"http://localhost:8080/ExploringSocialMetacognition/assets/image/advisor2.png","adviceTime":2001.9999998621643,"trial_type":"jspsych-jas-present-advice-choice","trial_index":39,"time_elapsed":142946,"internal_node_id":"0.0-13.0-1.4"},{"startTime":143176.5000000596,"rt":1742.0000000856817,"response":[{"id":0,"name":"Left","answer":50,"prompt":"Left","lastChangedTime":null},{"id":1,"name":"Right","answer":"100","prompt":"Right","lastChangedTime":144345.4999998212}],"trial_type":"canvas-sliders-response","trial_index":40,"time_elapsed":144688,"internal_node_id":"0.0-13.0-2.4"}],"confidenceCategory":0,"advisorAgrees":true,"advice":{"filePath":"assets/audio/voices/1/right_think.wav","string":"It was on the RIGHT, I think","loaded":true,"loading":true,"data":null,"buffer":{},"side":1,"confidence":0}},{"type":1,"typeName":"force","block":2,"advisorId":3,"choice":[],"answer":[0,0],"confidence":[100,100],"whichSide":0,"practice":false,"feedback":false,"warnings":[],"stimulusDrawTime":[145819.4999997504],"stimulusOffTime":[901.0000000707805,null],"fixationDrawTime":[145319.4999997504],"id":13,"dotDifference":18,"grid":{"dotCountL":218,"dotCountR":182,"gridWidth":20,"gridHeight":20,"dotWidth":2,"dotHeight":2,"paddingX":6,"paddingY":6,"gridL":[[0,1,1,1,1,1,1,0,1,0,0,0,1,0,0,1,0,0,1,1],[0,1,1,1,0,0,0,0,0,1,1,1,0,0,1,1,0,1,0,1],[0,1,1,1,1,0,0,0,1,1,0,1,1,0,1,0,1,1,1,0],[0,0,0,1,1,1,1,0,1,1,0,1,0,1,1,0,0,1,0,0],[1,1,1,1,0,1,1,1,1,0,0,1,0,1,0,1,1,0,0,1],[0,0,1,0,1,1,1,1,1,0,0,1,0,1,1,0,0,1,1,1],[1,1,1,1,1,0,1,1,0,0,1,1,0,1,0,1,0,1,0,0],[0,1,0,1,1,1,1,1,0,0,0,1,1,0,0,1,1,1,1,1],[0,0,1,0,0,1,0,1,0,1,1,1,0,1,1,1,1,0,0,1],[1,1,1,1,1,0,1,1,1,0,1,0,0,1,0,0,1,0,0,0],[0,0,1,0,1,1,1,0,0,0,0,1,0,0,0,1,0,1,0,0],[0,0,0,1,0,1,1,0,1,1,1,0,1,0,0,1,1,1,0,1],[0,1,1,1,0,0,1,0,0,1,1,0,1,1,1,0,1,1,1,1],[0,0,1,0,0,0,1,0,1,1,1,1,0,0,0,0,0,1,1,1],[0,1,0,0,0,1,0,1,1,1,1,0,0,0,0,1,0,1,1,0],[1,1,0,1,0,1,1,1,1,1,0,0,0,0,0,1,0,1,1,1],[1,0,0,0,1,0,1,1,1,1,1,0,1,0,0,0,1,1,1,1],[0,0,0,1,1,1,1,0,1,0,0,0,1,0,1,0,1,1,1,0],[1,1,1,1,0,1,0,1,0,0,0,1,1,0,0,0,1,0,0,1],[1,0,0,0,1,1,1,1,0,0,0,0,1,1,0,1,0,1,0,1]],"gridR":[[1,1,0,0,1,0,0,0,0,0,0,1,0,0,1,1,0,0,1,1],[1,1,1,1,1,0,1,1,0,1,0,0,0,1,1,0,1,1,1,1],[0,0,1,0,0,1,1,1,1,0,1,0,1,0,1,0,0,0,0,1],[1,0,0,1,1,0,0,1,0,1,0,1,0,0,1,0,0,1,0,0],[0,1,0,1,1,0,1,1,0,1,0,1,1,0,0,1,0,0,0,1],[0,1,0,0,0,1,0,1,0,1,1,0,0,0,0,0,0,0,0,0],[1,0,0,0,0,0,0,1,1,1,0,1,1,1,1,0,0,0,0,1],[1,1,0,1,1,0,0,0,0,0,1,0,0,1,0,1,0,0,0,1],[0,0,0,0,0,0,1,0,1,0,1,1,1,0,0,1,0,0,1,1],[0,0,1,0,0,0,0,0,1,1,1,0,1,1,1,1,0,1,1,1],[0,0,1,0,0,0,0,0,1,0,1,0,0,0,1,0,1,0,1,0],[0,1,0,0,1,0,0,0,1,1,0,1,1,1,0,0,0,0,0,0],[1,0,1,0,1,1,0,0,0,1,0,1,0,1,0,0,1,1,0,0],[0,1,1,0,1,1,1,0,1,0,1,1,0,0,0,1,0,1,1,0],[0,0,0,1,0,0,0,0,1,0,1,1,0,1,0,0,1,0,1,0],[0,0,1,0,1,1,1,1,0,0,1,0,1,1,1,1,0,1,0,1],[1,1,0,1,0,0,1,0,0,0,0,0,0,0,0,0,1,1,1,0],[0,1,0,1,1,1,1,0,1,0,0,1,1,0,0,1,0,1,1,1],[0,1,1,0,1,1,0,1,0,1,0,0,1,1,1,1,1,0,1,1],[0,0,1,1,1,0,1,0,1,0,0,1,1,1,0,0,0,0,0,0]],"displayWidth":172,"displayHeight":172,"spacing":100,"style":{"gridBorderColor":"#ffffff","gridBorderWidth":"3","dotColor":"#ffffff","dotLineWidth":"1"}},"pluginResponse":[{"startTime":145119.5000000298,"rt":3202.000000048429,"response":[{"id":0,"name":"Left","answer":100,"prompt":"Left","lastChangedTime":147544.49999984354},{"id":1,"name":"Right","answer":"50","prompt":"Right","lastChangedTime":null}],"stimulusOffTime":901.0000000707805,"trial_type":"canvas-sliders-response","trial_index":41,"time_elapsed":148091,"internal_node_id":"0.0-13.0-0.5"},{"choiceTime":0,"choice":3,"totalTime":2001.9999998621643,"image":"http://localhost:8080/ExploringSocialMetacognition/assets/image/advisor1.png","adviceTime":2001.9999998621643,"trial_type":"jspsych-jas-present-advice-choice","trial_index":42,"time_elapsed":150093,"internal_node_id":"0.0-13.0-1.5"},{"startTime":150324.5000001043,"rt":1406.9999996572733,"response":[{"id":0,"name":"Left","answer":100,"prompt":"Left","lastChangedTime":151093.49999995902},{"id":1,"name":"Right","answer":"50","prompt":"Right","lastChangedTime":null}],"trial_type":"canvas-sliders-response","trial_index":43,"time_elapsed":151502,"internal_node_id":"0.0-13.0-2.5"}],"confidenceCategory":0,"advisorAgrees":true,"advice":{"filePath":"assets/audio/voices/3/think_left.wav","string":"I think it was on the LEFT","loaded":true,"loading":true,"data":null,"buffer":{},"side":0,"confidence":0}},{"type":2,"typeName":"choice","block":2,"advisorId":3,"choice":[3,2],"answer":[1,1],"confidence":[100,100],"whichSide":0,"practice":false,"feedback":false,"warnings":[],"stimulusDrawTime":[152633.49999999627],"stimulusOffTime":[900.000000372529,null],"fixationDrawTime":[152133.49999999627],"id":14,"dotDifference":15,"grid":{"dotCountL":215,"dotCountR":185,"gridWidth":20,"gridHeight":20,"dotWidth":2,"dotHeight":2,"paddingX":6,"paddingY":6,"gridL":[[0,1,1,1,1,0,0,1,1,0,1,1,1,1,0,1,0,0,0,0],[0,0,1,1,0,0,0,0,1,1,1,1,0,1,0,1,1,1,1,0],[0,0,0,1,1,0,0,0,0,1,0,0,0,1,1,1,0,0,0,1],[1,1,1,0,1,1,0,1,1,0,0,0,1,1,0,0,1,1,0,1],[1,1,1,1,1,0,0,1,0,1,1,0,0,1,1,1,0,0,0,0],[1,0,0,1,0,1,0,1,1,1,0,0,0,0,0,0,0,1,1,0],[1,1,1,1,1,1,1,0,0,1,1,1,0,0,0,1,0,0,1,1],[1,1,0,1,0,1,1,1,0,0,0,0,0,0,0,0,0,1,1,0],[0,1,1,0,1,0,1,0,1,0,1,1,0,0,1,1,0,1,1,1],[1,0,1,0,1,1,1,1,1,1,1,1,1,0,0,1,1,0,1,0],[0,0,1,1,1,0,0,0,1,1,1,1,1,1,1,1,1,1,1,0],[0,0,0,0,0,1,1,0,1,0,1,1,0,0,1,1,0,0,0,0],[0,1,0,1,0,0,1,0,0,0,0,1,1,1,1,0,1,0,1,0],[0,0,0,0,1,1,0,0,1,1,0,1,1,1,1,1,1,0,1,1],[1,1,1,0,0,1,1,1,0,1,0,0,0,0,1,0,0,1,1,1],[1,0,0,0,1,0,1,1,1,1,1,0,0,1,1,0,0,0,0,1],[1,1,1,1,0,1,1,0,1,0,0,1,0,0,0,1,0,1,1,0],[1,1,1,1,1,1,1,1,0,1,1,1,0,1,0,1,0,0,1,1],[1,0,1,0,0,1,0,1,0,1,0,1,1,0,0,0,0,1,1,0],[0,0,1,0,0,1,1,1,0,0,0,0,1,1,1,0,1,1,0,1]],"gridR":[[0,0,1,1,0,0,0,0,0,1,1,1,1,0,0,0,1,0,1,1],[0,0,1,0,1,1,1,0,0,1,1,0,1,1,0,1,0,1,0,1],[0,0,0,0,0,0,1,1,0,0,0,0,0,0,0,0,0,0,1,1],[0,1,0,1,1,1,0,0,1,0,1,0,0,0,1,0,1,1,0,1],[1,1,1,0,0,1,1,1,1,1,0,0,1,0,0,0,0,1,0,0],[1,1,0,1,0,1,0,1,0,0,1,1,1,0,0,0,0,0,1,1],[1,1,1,0,0,0,0,1,1,1,1,0,1,1,0,1,1,1,1,1],[1,1,0,1,0,0,1,1,0,1,0,0,1,0,0,1,1,0,0,0],[0,0,0,0,0,0,1,1,1,1,0,0,1,0,0,0,0,0,0,1],[1,0,1,0,1,0,1,1,0,0,0,1,0,1,1,0,1,0,0,0],[0,0,1,1,0,0,0,1,1,1,0,1,1,0,0,0,0,0,1,0],[0,0,0,1,1,1,0,1,1,1,0,1,0,0,1,0,0,1,1,1],[1,0,0,0,0,1,0,0,0,0,0,1,1,0,0,0,1,1,1,1],[0,0,0,1,1,1,1,0,0,1,0,0,0,0,0,0,0,0,0,1],[0,1,1,1,1,0,1,0,1,0,0,1,1,1,0,1,1,0,0,0],[0,0,1,0,1,0,0,0,0,0,1,1,0,1,1,0,1,0,0,0],[1,0,0,1,1,1,0,0,0,0,0,1,1,0,1,0,1,0,0,0],[1,1,1,1,0,0,1,1,0,1,0,0,0,0,0,0,1,0,1,1],[1,1,1,1,0,0,1,1,0,1,0,1,1,1,0,0,0,1,0,0],[1,1,0,0,1,1,1,1,0,1,1,1,0,1,0,1,0,1,0,1]],"displayWidth":172,"displayHeight":172,"spacing":100,"style":{"gridBorderColor":"#ffffff","gridBorderWidth":"3","dotColor":"#ffffff","dotLineWidth":"1"}},"pluginResponse":[{"startTime":151933.49999981,"rt":2444.0000001341105,"response":[{"id":0,"name":"Left","answer":50,"prompt":"Left","lastChangedTime":null},{"id":1,"name":"Right","answer":"100","prompt":"Right","lastChangedTime":153797.49999986961}],"stimulusOffTime":900.000000372529,"trial_type":"canvas-sliders-response","trial_index":44,"time_elapsed":154148,"internal_node_id":"0.0-13.0-0.6"},{"choiceTime":487.0000001974404,"choice":3,"totalTime":2490.0000002235174,"image":"http://localhost:8080/ExploringSocialMetacognition/assets/image/advisor1.png","adviceTime":2003.000000026077,"trial_type":"jspsych-jas-present-advice-choice","trial_index":45,"time_elapsed":156638,"internal_node_id":"0.0-13.0-1.6"},{"startTime":156868.4999998659,"rt":1589.000000152737,"response":[{"id":0,"name":"Left","answer":50,"prompt":"Left","lastChangedTime":null},{"id":1,"name":"Right","answer":"100","prompt":"Right","lastChangedTime":157872.50000005588}],"trial_type":"canvas-sliders-response","trial_index":46,"time_elapsed":158229,"internal_node_id":"0.0-13.0-2.6"}],"confidenceCategory":0,"advisorAgrees":false,"advice":{"filePath":"assets/audio/voices/3/think_right.wav","string":"I think it was on the RIGHT","loaded":true,"loading":true,"data":null,"buffer":{},"side":1,"confidence":0}},{"type":1,"typeName":"force","block":2,"advisorId":3,"choice":[],"answer":[1,1],"confidence":[100,100],"whichSide":1,"practice":false,"feedback":false,"warnings":[],"stimulusDrawTime":[159360.49999995157],"stimulusOffTime":[899.9999999068677,null],"fixationDrawTime":[158859.49999978766],"id":15,"dotDifference":18,"grid":{"dotCountL":182,"dotCountR":218,"gridWidth":20,"gridHeight":20,"dotWidth":2,"dotHeight":2,"paddingX":6,"paddingY":6,"gridL":[[1,0,1,1,1,1,0,1,1,1,0,0,1,1,1,0,1,1,1,1],[0,0,0,0,0,0,0,1,0,0,0,0,1,0,0,0,0,1,1,1],[1,0,0,0,0,1,0,1,0,1,1,0,0,0,1,0,0,0,0,1],[0,0,1,0,0,1,1,0,0,1,0,0,0,1,1,1,1,1,1,0],[0,0,1,0,0,0,0,1,0,1,1,1,0,1,1,0,0,1,1,0],[1,0,0,0,0,0,0,0,0,1,0,0,1,1,0,0,0,1,0,1],[1,0,0,1,0,0,0,1,0,0,0,0,1,0,0,1,1,1,1,1],[1,0,1,0,0,1,0,0,1,0,0,1,1,0,1,0,0,1,1,1],[0,1,0,0,0,0,0,1,0,1,0,0,0,0,0,0,0,1,1,1],[1,0,1,1,1,0,1,0,0,0,1,1,0,1,1,1,0,1,0,1],[1,0,0,1,0,0,0,0,1,0,1,1,0,0,1,1,0,0,0,0],[1,1,0,1,0,1,1,1,1,0,0,1,0,0,0,0,0,0,0,1],[1,0,1,1,1,0,1,1,0,1,0,0,0,0,1,1,1,1,0,0],[1,1,0,0,1,1,1,0,1,0,1,0,1,0,1,1,1,0,1,1],[0,0,0,1,0,1,0,1,1,1,1,1,0,0,0,1,0,0,0,0],[1,1,0,1,0,1,0,1,1,0,0,0,0,0,0,1,1,0,0,0],[0,1,0,1,1,0,1,1,1,1,0,1,0,1,0,1,1,0,0,0],[1,0,0,0,0,1,1,1,0,0,0,1,0,0,1,1,1,1,1,1],[0,1,1,1,1,0,0,0,0,0,1,1,0,1,1,0,0,0,0,1],[0,0,1,0,0,1,0,1,0,0,0,0,0,1,0,0,0,1,1,0]],"gridR":[[1,1,1,1,0,0,1,0,0,0,1,1,0,0,0,0,1,0,0,1],[0,1,0,1,0,0,1,1,1,1,0,0,1,1,0,1,0,1,1,1],[0,1,0,0,1,0,0,0,0,0,1,0,0,1,1,0,0,0,1,0],[1,0,1,0,1,0,1,0,0,0,0,0,1,0,0,1,1,1,0,1],[1,1,0,1,1,1,0,1,0,0,1,1,1,0,0,1,0,0,1,0],[1,0,1,1,1,1,0,1,0,0,1,0,1,1,1,0,0,0,1,1],[1,1,1,1,1,1,0,1,0,0,1,1,1,1,1,1,0,1,1,1],[1,0,0,1,1,1,1,0,1,0,0,0,1,0,1,1,0,1,1,0],[1,1,1,1,1,0,1,1,1,0,0,1,1,1,0,1,1,0,0,1],[0,1,0,0,0,0,0,1,0,1,0,0,0,0,0,1,0,0,1,0],[1,0,1,0,1,1,1,0,1,0,1,1,1,0,0,0,0,1,1,0],[1,1,1,0,0,0,1,1,1,1,0,1,1,1,1,0,1,1,1,1],[0,0,1,0,1,0,1,1,1,0,0,0,1,0,0,1,1,1,1,0],[1,0,1,0,1,0,1,0,0,1,1,1,1,1,1,0,0,1,1,1],[1,1,0,1,1,1,1,0,1,0,0,1,0,0,0,0,0,0,1,0],[0,1,0,1,0,1,1,1,1,0,0,1,1,1,1,1,1,0,0,1],[0,1,0,1,1,1,1,1,0,1,1,1,1,0,1,0,0,0,1,1],[0,0,1,0,0,0,0,0,0,1,1,1,0,1,1,0,1,0,0,1],[0,1,0,0,1,0,1,1,0,0,0,1,1,1,1,0,1,0,1,1],[1,1,1,0,0,0,1,0,0,1,1,1,0,0,1,1,0,1,0,0]],"displayWidth":172,"displayHeight":172,"spacing":100,"style":{"gridBorderColor":"#ffffff","gridBorderWidth":"3","dotColor":"#ffffff","dotLineWidth":"1"}},"pluginResponse":[{"startTime":158659.50000006706,"rt":2455.9999997727573,"response":[{"id":0,"name":"Left","answer":50,"prompt":"Left","lastChangedTime":null},{"id":1,"name":"Right","answer":"100","prompt":"Right","lastChangedTime":160618.4999998659}],"stimulusOffTime":899.9999999068677,"trial_type":"canvas-sliders-response","trial_index":47,"time_elapsed":160886,"internal_node_id":"0.0-13.0-0.7"},{"choiceTime":0,"choice":3,"totalTime":2003.000000026077,"image":"http://localhost:8080/ExploringSocialMetacognition/assets/image/advisor1.png","adviceTime":2003.000000026077,"trial_type":"jspsych-jas-present-advice-choice","trial_index":48,"time_elapsed":162890,"internal_node_id":"0.0-13.0-1.7"},{"startTime":163120.49999972805,"rt":991.0000003874302,"response":[{"id":0,"name":"Left","answer":50,"prompt":"Left","lastChangedTime":null},{"id":1,"name":"Right","answer":"100","prompt":"Right","lastChangedTime":163675.4999998957}],"trial_type":"canvas-sliders-response","trial_index":49,"time_elapsed":163883,"internal_node_id":"0.0-13.0-2.7"}],"confidenceCategory":0,"advisorAgrees":true,"advice":{"filePath":"assets/audio/voices/3/think_right.wav","string":"I think it was on the RIGHT","loaded":true,"loading":true,"data":null,"buffer":{},"side":1,"confidence":0}},{"type":1,"typeName":"force","block":2,"advisorId":2,"choice":[],"answer":[0,0],"confidence":[98,100],"whichSide":0,"practice":false,"feedback":false,"warnings":[],"stimulusDrawTime":[165015.49999974668],"stimulusOffTime":[900.9999996051192,null],"fixationDrawTime":[164514.50000004843],"id":16,"dotDifference":18,"grid":{"dotCountL":218,"dotCountR":182,"gridWidth":20,"gridHeight":20,"dotWidth":2,"dotHeight":2,"paddingX":6,"paddingY":6,"gridL":[[0,1,1,1,0,1,0,0,0,1,1,0,0,0,1,0,1,0,0,1],[0,1,1,1,1,1,0,1,0,0,0,1,1,1,1,0,1,0,1,0],[1,0,1,0,0,1,0,0,0,1,1,0,0,0,1,1,1,1,0,1],[1,1,1,0,1,0,1,1,0,0,1,0,1,1,0,0,0,1,0,1],[1,1,0,1,1,1,0,1,1,0,1,1,0,1,1,0,1,0,0,1],[1,1,1,1,1,1,1,1,1,1,1,1,1,1,1,1,1,0,1,0],[1,1,0,0,0,0,1,0,1,0,1,1,1,1,1,0,1,1,0,1],[1,0,1,1,0,1,1,1,1,1,0,1,0,1,1,1,1,1,1,1],[0,0,1,0,0,1,1,0,1,0,1,1,0,1,0,1,0,0,0,0],[1,1,0,1,1,0,1,0,0,1,0,1,1,0,0,1,0,1,0,0],[0,0,0,1,0,0,1,1,0,0,1,1,0,1,1,0,0,0,0,0],[0,0,0,0,0,1,1,1,0,0,0,1,1,0,1,1,0,1,1,0],[1,1,0,1,1,0,0,0,1,0,1,1,0,1,0,1,1,1,0,0],[1,1,0,0,1,1,1,1,0,0,0,0,1,0,1,1,1,1,0,0],[1,0,1,0,1,1,1,1,1,0,1,1,0,1,0,0,0,1,0,0],[1,0,0,0,1,0,0,1,1,1,0,1,0,0,0,1,0,1,1,0],[1,0,1,1,0,1,1,0,1,1,0,0,1,0,1,1,1,0,1,0],[1,1,0,0,1,1,1,1,0,1,0,1,0,0,1,0,0,0,0,1],[1,0,0,1,1,0,1,0,1,0,0,1,0,0,0,1,1,0,0,0],[1,1,0,1,0,1,0,1,0,0,1,0,1,0,1,1,0,0,1,1]],"gridR":[[0,0,1,0,0,0,0,0,1,1,0,0,0,1,0,0,1,1,1,0],[0,1,0,0,1,0,0,1,0,0,1,1,1,0,0,1,1,0,0,0],[1,0,1,1,0,0,0,0,0,1,1,0,1,0,0,0,1,1,0,0],[0,1,1,0,1,1,1,0,0,0,0,1,1,1,0,0,1,1,0,0],[0,0,0,1,0,0,0,1,1,1,1,0,0,1,1,1,1,0,0,0],[1,1,0,0,0,0,1,0,0,1,0,1,1,1,1,1,1,1,1,1],[1,0,0,0,1,1,1,1,0,0,0,1,1,0,0,1,0,0,1,0],[1,0,1,0,1,0,1,1,0,0,1,1,1,0,0,1,1,0,1,1],[0,1,0,0,0,0,0,1,1,1,1,1,0,1,1,1,1,0,1,1],[1,1,0,0,0,1,0,1,0,0,0,1,0,1,0,0,0,0,1,0],[0,1,1,0,0,0,0,1,0,1,0,1,0,1,0,0,0,1,0,0],[1,0,0,0,1,1,0,0,1,1,0,0,0,0,0,0,1,0,1,0],[1,0,1,0,1,1,0,1,0,0,1,1,1,0,1,1,0,0,0,0],[1,0,1,0,0,0,1,0,1,0,1,0,1,1,1,1,1,0,1,1],[0,0,0,0,0,0,0,1,1,0,0,0,0,1,1,0,0,1,0,0],[1,0,1,0,0,0,0,1,1,0,0,1,1,1,0,0,0,0,0,0],[1,1,0,0,1,1,1,1,1,1,0,1,1,1,1,1,0,0,0,1],[0,1,1,0,0,0,0,1,1,1,0,0,1,1,0,0,1,0,0,1],[1,0,0,1,1,0,0,1,0,0,1,1,1,0,0,0,0,0,0,1],[0,0,1,0,1,1,0,0,1,1,0,0,0,1,0,0,0,1,1,0]],"displayWidth":172,"displayHeight":172,"spacing":100,"style":{"gridBorderColor":"#ffffff","gridBorderWidth":"3","dotColor":"#ffffff","dotLineWidth":"1"}},"pluginResponse":[{"startTime":164313.5000001639,"rt":3316.999999806285,"response":[{"id":0,"name":"Left","answer":98,"prompt":"Left","lastChangedTime":167037.50000009313},{"id":1,"name":"Right","answer":"50","prompt":"Right","lastChangedTime":null}],"stimulusOffTime":900.9999996051192,"trial_type":"canvas-sliders-response","trial_index":50,"time_elapsed":167400,"internal_node_id":"0.0-13.0-0.8"},{"choiceTime":0,"choice":2,"totalTime":2001.9999998621643,"image":"http://localhost:8080/ExploringSocialMetacognition/assets/image/advisor2.png","adviceTime":2001.9999998621643,"trial_type":"jspsych-jas-present-advice-choice","trial_index":51,"time_elapsed":169404,"internal_node_id":"0.0-13.0-1.8"},{"startTime":169634.5000001602,"rt":1882.9999999143183,"response":[{"id":0,"name":"Left","answer":100,"prompt":"Left","lastChangedTime":170934.49999997392},{"id":1,"name":"Right","answer":"50","prompt":"Right","lastChangedTime":null}],"trial_type":"canvas-sliders-response","trial_index":52,"time_elapsed":171287,"internal_node_id":"0.0-13.0-2.8"}],"confidenceCategory":0,"advisorAgrees":true,"advice":{"filePath":"assets/audio/voices/1/think_left.wav","string":"I think it was on the LEFT","loaded":true,"loading":true,"data":null,"buffer":{},"side":0,"confidence":0}},{"type":2,"typeName":"choice","block":2,"advisorId":3,"choice":[2,3],"answer":[1,1],"confidence":[100,100],"whichSide":0,"practice":false,"feedback":false,"warnings":[],"stimulusDrawTime":[172421.50000017136],"stimulusOffTime":[899.9999999068677,null],"fixationDrawTime":[171922.49999986961],"id":17,"dotDifference":15,"grid":{"dotCountL":215,"dotCountR":185,"gridWidth":20,"gridHeight":20,"dotWidth":2,"dotHeight":2,"paddingX":6,"paddingY":6,"gridL":[[0,1,0,1,1,0,1,1,0,1,0,1,1,1,0,0,0,0,1,0],[0,1,1,0,0,0,0,1,1,1,0,1,1,1,1,1,1,1,0,0],[0,1,0,1,1,0,1,0,1,0,1,1,1,1,0,1,1,0,1,0],[1,0,1,1,1,0,1,0,0,1,1,1,0,1,0,1,0,0,0,1],[0,1,1,0,0,0,0,1,1,0,1,0,1,1,1,1,1,0,0,0],[1,0,0,0,1,1,0,0,1,0,0,0,1,0,0,0,0,0,0,0],[0,1,0,0,0,1,1,1,1,0,0,0,0,1,0,0,0,0,1,1],[1,0,1,1,0,1,1,1,0,1,1,0,1,1,1,1,0,1,0,0],[0,0,1,1,1,1,1,0,1,1,0,0,1,1,1,0,0,1,1,1],[1,1,1,0,1,0,1,1,0,0,1,0,1,1,1,1,0,1,1,0],[1,0,1,1,1,0,0,0,1,1,1,1,0,1,0,0,0,0,1,1],[1,1,1,1,1,1,1,0,1,1,1,0,0,0,1,0,1,1,0,1],[0,0,0,0,1,0,1,1,1,0,1,0,1,0,0,1,1,0,0,0],[0,0,1,1,0,1,1,1,1,1,0,0,1,1,1,0,0,0,0,0],[0,0,0,1,1,0,1,0,0,0,0,1,0,0,0,0,1,0,0,0],[1,1,1,1,1,1,1,1,1,1,1,1,1,1,0,0,0,1,1,0],[1,0,0,1,0,1,0,0,1,1,1,0,1,0,1,0,1,1,0,1],[1,0,0,0,1,0,0,0,1,0,1,0,1,0,1,1,1,0,0,1],[1,1,1,0,1,1,1,1,0,1,0,1,1,0,1,0,0,1,1,1],[0,1,1,0,1,1,1,0,1,1,0,0,1,0,0,0,0,1,1,0]],"gridR":[[0,0,1,1,0,0,0,1,0,0,0,0,1,0,0,1,1,1,1,1],[0,1,0,0,0,0,0,0,0,0,0,1,0,0,0,0,1,1,0,1],[1,1,1,0,0,0,0,1,0,1,0,0,1,1,1,1,1,0,0,1],[1,1,1,0,1,0,1,1,1,1,0,1,0,1,0,0,1,0,0,1],[1,0,0,1,0,0,1,0,0,0,0,0,0,1,0,0,1,0,0,0],[1,1,0,1,0,1,0,1,0,1,1,1,1,0,0,0,1,1,0,0],[0,0,0,0,0,0,0,1,0,0,0,0,0,1,1,0,1,0,0,1],[0,1,1,1,0,1,0,0,1,1,1,0,1,0,0,1,0,0,0,0],[1,1,0,1,0,1,0,1,0,1,1,1,0,1,1,0,0,0,0,0],[1,0,0,1,0,0,0,1,1,0,0,0,1,1,0,0,1,0,1,0],[0,0,0,1,1,1,1,0,0,0,0,1,1,1,1,1,1,1,1,1],[0,0,1,0,1,0,1,0,0,0,0,0,0,0,0,1,1,0,0,0],[1,0,1,1,0,0,1,0,0,0,1,0,1,1,1,1,1,0,1,1],[1,1,0,0,0,0,1,1,1,0,0,0,0,1,0,1,1,1,1,0],[1,0,1,0,0,1,0,1,0,1,0,1,0,0,1,0,0,0,0,0],[0,1,1,1,0,1,1,1,1,1,1,0,1,0,0,0,0,1,1,1],[0,1,0,0,0,0,0,0,1,0,0,1,0,1,1,0,1,0,1,0],[1,1,0,1,1,0,0,1,1,0,1,0,0,0,0,1,0,1,1,1],[1,0,0,0,1,0,1,0,1,0,1,1,0,0,1,1,1,0,0,1],[0,0,0,1,1,1,0,1,1,0,1,1,0,0,1,1,1,0,1,1]],"displayWidth":172,"displayHeight":172,"spacing":100,"style":{"gridBorderColor":"#ffffff","gridBorderWidth":"3","dotColor":"#ffffff","dotLineWidth":"1"}},"pluginResponse":[{"startTime":171721.4999999851,"rt":2799.9999998137355,"response":[{"id":0,"name":"Left","answer":50,"prompt":"Left","lastChangedTime":null},{"id":1,"name":"Right","answer":"100","prompt":"Right","lastChangedTime":173911.49999992922}],"stimulusOffTime":899.9999999068677,"trial_type":"canvas-sliders-response","trial_index":53,"time_elapsed":174293,"internal_node_id":"0.0-13.0-0.9"},{"choiceTime":1182.0000000298023,"choice":3,"totalTime":3183.9999998919666,"image":"http://localhost:8080/ExploringSocialMetacognition/assets/image/advisor1.png","adviceTime":2001.9999998621643,"trial_type":"jspsych-jas-present-advice-choice","trial_index":54,"time_elapsed":177477,"internal_node_id":"0.0-13.0-1.9"},{"startTime":177707.50000001863,"rt":1930.000000167638,"response":[{"id":0,"name":"Left","answer":50,"prompt":"Left","lastChangedTime":null},{"id":1,"name":"Right","answer":"100","prompt":"Right","lastChangedTime":179051.5000000596}],"trial_type":"canvas-sliders-response","trial_index":55,"time_elapsed":179408,"internal_node_id":"0.0-13.0-2.9"}],"confidenceCategory":0,"advisorAgrees":false,"advice":{"filePath":"assets/audio/voices/3/think_right.wav","string":"I think it was on the RIGHT","loaded":true,"loading":true,"data":null,"buffer":{},"side":1,"confidence":0}},{"type":1,"typeName":"force","block":2,"advisorId":3,"choice":[],"answer":[1,0],"confidence":[98,100],"whichSide":0,"practice":false,"feedback":false,"warnings":[],"stimulusDrawTime":[180539.4999999553],"stimulusOffTime":[900.000000372529,null],"fixationDrawTime":[180039.4999999553],"id":18,"dotDifference":18,"grid":{"dotCountL":218,"dotCountR":182,"gridWidth":20,"gridHeight":20,"dotWidth":2,"dotHeight":2,"paddingX":6,"paddingY":6,"gridL":[[0,0,1,0,1,1,1,0,1,1,0,0,1,1,0,0,1,0,1,1],[1,1,1,0,1,1,1,0,0,0,0,1,1,1,0,0,1,0,1,0],[1,0,1,1,1,0,1,1,1,0,1,0,1,1,1,1,1,1,1,1],[0,1,0,0,0,1,1,1,0,1,0,0,0,1,1,0,0,1,0,0],[0,0,1,1,1,1,1,1,1,0,0,1,0,1,1,0,1,1,1,1],[1,1,1,1,0,1,1,0,1,0,1,1,0,0,0,0,0,1,1,0],[1,0,0,0,1,1,0,1,0,1,0,0,0,0,0,0,0,1,1,0],[0,1,1,1,1,0,0,1,1,0,1,0,0,1,0,1,0,1,1,1],[1,1,0,0,0,1,1,1,0,1,1,1,0,0,0,0,1,1,0,0],[1,0,0,0,1,0,1,0,1,1,0,1,1,1,1,1,0,1,0,1],[0,1,0,0,1,1,1,1,0,0,1,0,0,0,1,1,1,0,1,0],[1,0,0,1,0,1,1,1,1,1,1,0,1,1,0,1,0,1,1,1],[1,0,0,1,1,0,1,0,0,0,0,1,0,1,1,1,1,1,0,0],[1,0,1,1,0,1,1,0,1,1,1,0,0,1,1,1,1,0,1,0],[1,1,0,1,1,0,0,0,0,0,0,1,0,1,0,1,0,0,1,0],[0,0,0,0,1,0,1,0,1,1,1,1,1,1,1,0,0,1,1,1],[0,1,1,1,0,1,1,0,0,0,1,1,0,0,1,0,0,0,0,0],[1,1,1,0,0,0,1,1,1,0,1,1,1,0,1,0,1,0,1,0],[1,0,0,1,1,0,1,1,1,1,1,0,0,0,1,0,0,1,1,1],[1,0,0,0,1,0,0,0,0,1,1,0,1,0,0,1,0,1,0,0]],"gridR":[[1,0,0,1,0,1,1,1,0,0,0,1,1,0,0,0,0,1,1,0],[1,0,1,1,1,0,1,0,1,0,0,1,1,0,0,0,1,0,0,1],[1,1,1,1,0,1,1,0,0,1,1,1,0,0,0,0,0,1,1,0],[1,0,0,1,0,0,1,0,0,1,0,1,1,1,1,0,1,1,0,1],[0,1,1,0,0,0,0,1,1,1,0,0,1,1,0,0,1,1,1,1],[1,1,1,0,0,1,0,0,0,0,1,0,0,1,0,0,0,0,0,0],[1,0,0,0,1,1,0,0,1,1,0,0,0,0,0,0,0,1,1,0],[0,0,0,1,0,1,0,0,0,1,1,0,0,0,1,0,0,1,0,0],[0,0,1,1,0,1,1,1,0,0,1,1,1,1,1,1,0,0,0,1],[1,1,1,0,0,0,1,1,0,0,0,0,0,1,0,0,0,0,1,1],[0,0,1,0,1,0,1,1,0,0,1,1,0,0,0,1,1,1,1,1],[0,0,1,1,0,0,1,1,0,1,1,1,1,0,0,0,1,0,1,0],[1,0,1,0,1,0,0,0,0,1,1,0,1,1,0,0,1,1,0,1],[0,0,0,0,1,0,0,0,0,0,1,0,1,0,0,1,0,0,1,0],[0,0,0,1,1,0,1,0,1,1,0,1,1,1,1,0,0,1,0,0],[0,1,0,0,1,1,1,1,0,1,1,1,0,1,0,1,0,0,0,1],[0,1,0,0,1,0,0,1,1,0,1,1,0,0,1,0,0,0,0,1],[1,1,0,1,0,1,0,0,0,1,0,0,1,0,0,1,0,0,1,0],[1,1,0,0,0,1,0,0,1,0,1,1,1,1,1,1,0,0,1,1],[0,0,0,0,0,0,0,1,0,0,1,1,1,0,1,0,0,0,1,0]],"displayWidth":172,"displayHeight":172,"spacing":100,"style":{"gridBorderColor":"#ffffff","gridBorderWidth":"3","dotColor":"#ffffff","dotLineWidth":"1"}},"pluginResponse":[{"startTime":179839.49999976903,"rt":3677.000000141561,"response":[{"id":0,"name":"Left","answer":50,"prompt":"Left","lastChangedTime":null},{"id":1,"name":"Right","answer":"98","prompt":"Right","lastChangedTime":182950.49999980256}],"stimulusOffTime":900.000000372529,"trial_type":"canvas-sliders-response","trial_index":56,"time_elapsed":183286,"internal_node_id":"0.0-13.0-0.10"},{"choiceTime":0,"choice":3,"totalTime":2003.000000026077,"image":"http://localhost:8080/ExploringSocialMetacognition/assets/image/advisor1.png","adviceTime":2003.000000026077,"trial_type":"jspsych-jas-present-advice-choice","trial_index":57,"time_elapsed":185289,"internal_node_id":"0.0-13.0-1.10"},{"startTime":185520.50000010058,"rt":1671.9999997876585,"response":[{"id":0,"name":"Left","answer":100,"prompt":"Left","lastChangedTime":186639.50000004843},{"id":1,"name":"Right","answer":"50","prompt":"Right","lastChangedTime":null}],"trial_type":"canvas-sliders-response","trial_index":58,"time_elapsed":186961,"internal_node_id":"0.0-13.0-2.10"}],"confidenceCategory":0,"advisorAgrees":true,"advice":{"filePath":"assets/audio/voices/3/think_left.wav","string":"I think it was on the LEFT","loaded":true,"loading":true,"data":null,"buffer":{},"side":0,"confidence":0}},{"type":2,"typeName":"choice","block":2,"advisorId":3,"choice":[3,2],"answer":[0,0],"confidence":[100,100],"whichSide":0,"practice":false,"feedback":false,"warnings":[],"stimulusDrawTime":[188093.49999995902],"stimulusOffTime":[901.0000000707805,null],"fixationDrawTime":[187593.49999995902],"id":19,"dotDifference":21,"grid":{"dotCountL":221,"dotCountR":179,"gridWidth":20,"gridHeight":20,"dotWidth":2,"dotHeight":2,"paddingX":6,"paddingY":6,"gridL":[[1,1,0,1,0,1,1,1,0,1,0,1,0,1,0,1,0,1,1,1],[0,0,0,1,0,1,1,0,1,0,0,0,1,0,1,0,1,0,1,1],[0,1,1,1,0,1,1,1,1,1,0,0,0,0,1,0,0,0,1,1],[1,0,0,0,0,1,1,0,1,0,0,1,0,0,1,0,0,1,0,0],[1,0,1,1,1,1,0,0,0,1,0,1,1,0,0,0,0,0,1,1],[1,1,0,1,0,0,0,0,0,1,1,1,1,1,1,1,1,1,1,0],[1,1,0,0,0,0,1,1,1,1,1,0,0,1,1,0,1,1,1,1],[0,1,1,1,1,1,1,0,1,1,1,1,0,1,1,0,1,0,1,0],[1,1,0,1,0,1,1,0,1,1,0,1,1,0,0,0,1,1,0,0],[0,1,1,0,0,0,1,1,0,0,0,0,0,1,1,1,0,1,0,1],[1,0,0,0,0,1,0,0,1,0,1,0,0,1,1,1,0,1,1,0],[0,1,0,0,1,1,1,1,1,0,0,0,0,0,1,0,1,1,1,0],[0,0,0,0,1,1,0,1,1,1,1,0,1,1,0,1,0,1,0,1],[0,0,1,0,1,1,1,1,1,1,1,1,1,0,1,0,1,1,1,0],[0,1,1,0,0,0,0,1,0,1,1,1,1,1,1,1,0,1,1,1],[1,1,0,0,1,0,1,1,1,1,1,1,0,0,0,1,1,1,1,1],[1,0,0,1,0,1,0,0,0,1,0,1,1,0,0,1,0,1,1,0],[1,1,1,0,1,1,0,1,1,0,1,0,1,1,0,0,1,0,0,1],[0,0,1,0,1,1,1,1,0,1,0,0,0,1,0,1,0,1,0,0],[1,1,0,1,1,0,0,0,0,0,0,0,1,1,1,0,1,1,1,0]],"gridR":[[1,1,0,1,1,0,0,0,1,0,0,0,1,0,0,0,0,1,0,1],[0,1,0,1,0,0,0,0,0,0,0,0,0,0,1,1,1,0,1,1],[0,0,0,0,0,0,1,1,1,0,0,0,0,0,1,0,0,1,0,0],[0,1,0,0,0,1,0,0,1,1,1,1,1,0,0,0,0,1,0,0],[1,1,0,0,0,0,1,1,1,0,0,0,1,0,1,0,0,0,0,0],[0,0,0,1,1,1,1,1,1,0,0,0,1,1,1,0,1,1,0,1],[0,0,1,1,1,1,0,0,0,1,0,0,1,1,0,0,1,1,0,1],[1,1,1,1,1,0,1,0,0,1,0,0,0,1,1,1,1,0,1,1],[0,0,1,1,0,0,0,1,0,1,0,0,0,0,0,0,1,0,1,1],[1,0,0,1,0,0,0,1,0,0,1,0,0,1,1,1,1,0,1,1],[1,1,0,1,1,0,0,0,1,1,1,1,0,1,0,0,0,0,1,1],[0,0,1,1,0,0,1,1,0,1,1,0,1,0,1,0,1,0,0,1],[1,1,0,1,0,0,1,1,1,0,1,1,1,0,1,0,1,1,0,1],[1,0,0,0,1,1,0,0,0,0,1,1,0,1,0,0,1,1,1,0],[0,1,1,0,0,0,0,0,1,0,1,0,0,0,1,1,1,0,1,1],[0,0,1,1,0,0,1,1,1,0,1,0,0,0,1,0,1,1,0,0],[0,0,1,1,0,0,0,1,1,0,1,0,1,0,0,0,1,0,0,0],[0,1,0,1,0,1,0,1,1,1,0,0,0,0,0,1,0,0,0,1],[0,0,0,1,0,1,0,0,1,0,0,0,0,0,1,1,0,0,1,1],[0,1,1,0,0,0,0,1,1,1,0,0,0,1,0,1,0,1,1,0]],"displayWidth":172,"displayHeight":172,"spacing":100,"style":{"gridBorderColor":"#ffffff","gridBorderWidth":"3","dotColor":"#ffffff","dotLineWidth":"1"}},"pluginResponse":[{"startTime":187393.49999977276,"rt":3334.999999962747,"response":[{"id":0,"name":"Left","answer":100,"prompt":"Left","lastChangedTime":189773.50000012666},{"id":1,"name":"Right","answer":"50","prompt":"Right","lastChangedTime":null}],"stimulusOffTime":901.0000000707805,"trial_type":"canvas-sliders-response","trial_index":59,"time_elapsed":190499,"internal_node_id":"0.0-13.0-0.11"},{"choiceTime":637.0000001043081,"choice":3,"totalTime":2640.000000130385,"image":"http://localhost:8080/ExploringSocialMetacognition/assets/image/advisor1.png","adviceTime":2003.000000026077,"trial_type":"jspsych-jas-present-advice-choice","trial_index":60,"time_elapsed":193138,"internal_node_id":"0.0-13.0-1.11"},{"startTime":193370.49999972805,"rt":2199.0000000223517,"response":[{"id":0,"name":"Left","answer":100,"prompt":"Left","lastChangedTime":194876.4999997802},{"id":1,"name":"Right","answer":"50","prompt":"Right","lastChangedTime":null}],"trial_type":"canvas-sliders-response","trial_index":61,"time_elapsed":195339,"internal_node_id":"0.0-13.0-2.11"}],"confidenceCategory":0,"advisorAgrees":true,"advice":{"filePath":"assets/audio/voices/3/left_think.wav","string":"It was on the LEFT, I think","loaded":true,"loading":true,"data":null,"buffer":{},"side":0,"confidence":0}},{"type":1,"typeName":"force","block":3,"advisorId":3,"choice":[],"answer":[1,1],"confidence":[100,100],"whichSide":1,"practice":false,"feedback":false,"warnings":[],"stimulusDrawTime":[413323.4999999404],"stimulusOffTime":[900.000000372529,null],"fixationDrawTime":[412823.4999999404],"id":20,"dotDifference":21,"grid":{"dotCountL":179,"dotCountR":221,"gridWidth":20,"gridHeight":20,"dotWidth":2,"dotHeight":2,"paddingX":6,"paddingY":6,"gridL":[[0,1,1,1,0,1,0,0,1,1,0,0,1,0,0,1,1,0,0,1],[1,1,0,0,1,0,0,0,0,0,0,1,1,1,0,0,0,1,0,1],[1,1,0,0,0,1,0,1,0,0,0,1,1,1,1,0,1,1,0,0],[1,1,0,1,1,0,0,0,0,1,1,0,0,1,1,1,1,0,1,0],[0,0,0,0,1,1,0,0,0,0,1,0,1,0,0,0,0,0,1,0],[0,1,0,1,0,1,0,0,0,0,0,0,1,0,0,1,1,1,0,0],[1,0,1,0,1,0,1,0,0,0,0,0,1,1,1,0,1,0,1,0],[1,0,1,1,0,1,0,1,1,0,1,1,0,1,1,0,0,0,0,1],[1,0,0,1,0,0,1,0,0,1,1,0,1,1,0,1,0,1,1,1],[1,1,1,0,0,0,1,0,0,0,1,0,1,0,0,0,1,1,1,0],[1,1,0,1,0,0,1,0,0,1,0,1,1,1,0,0,0,1,0,0],[0,0,0,1,0,0,1,0,0,0,0,0,1,1,0,1,1,0,0,0],[1,0,0,1,0,1,0,0,1,1,0,1,1,1,0,1,1,0,0,1],[1,0,0,1,0,0,1,0,1,0,0,0,0,0,0,0,0,1,0,0],[0,0,0,1,0,1,0,1,0,1,1,1,1,0,1,0,1,0,0,1],[0,0,1,0,0,0,0,1,1,0,0,0,1,1,1,1,0,1,1,1],[1,1,1,1,0,1,1,1,0,1,0,0,1,0,0,1,1,1,0,0],[1,1,1,1,1,0,1,1,0,0,0,1,0,0,0,0,1,0,0,1],[1,0,0,0,1,0,0,0,1,0,1,1,0,1,1,0,0,0,0,0],[1,0,0,1,0,1,0,0,0,0,1,0,1,1,0,1,1,0,0,0]],"gridR":[[1,0,0,0,0,1,0,0,0,1,0,0,1,1,0,0,0,1,0,1],[1,0,1,0,0,0,1,1,0,1,1,1,0,1,0,1,1,1,1,0],[0,1,1,0,1,0,1,1,1,1,0,0,1,0,1,1,1,1,0,1],[1,1,1,0,0,0,0,0,1,0,1,1,1,1,0,1,1,0,0,1],[1,0,1,0,1,1,1,1,1,0,1,0,1,0,0,0,0,1,0,0],[1,0,1,0,0,0,1,1,1,0,0,1,1,0,0,1,1,0,0,0],[0,1,0,1,0,1,1,1,0,1,0,0,1,0,1,0,0,0,0,0],[1,0,0,0,1,0,0,1,1,1,0,1,1,0,0,1,1,0,1,1],[1,1,1,0,1,0,1,1,0,1,0,0,0,1,1,1,1,1,1,1],[0,1,1,1,0,1,0,1,0,1,1,1,1,1,0,0,1,1,0,0],[1,0,1,0,1,1,1,0,0,1,1,1,0,1,1,0,0,1,0,0],[1,1,1,0,1,0,1,1,1,1,1,1,1,1,1,0,0,1,0,1],[0,0,0,0,1,1,1,0,0,0,1,0,0,1,0,1,1,0,1,0],[1,1,0,1,0,0,1,0,0,0,0,1,1,1,1,1,0,1,1,1],[1,0,0,0,0,1,0,1,0,1,1,1,1,1,1,1,1,0,0,0],[0,0,0,1,0,1,0,1,1,1,1,1,0,0,0,1,1,1,0,0],[1,0,1,1,0,1,0,1,1,0,1,0,0,1,0,0,0,1,1,1],[0,0,1,1,0,1,0,1,1,1,1,0,1,0,1,0,0,1,1,1],[1,1,1,1,1,1,0,1,1,0,1,1,1,0,0,1,0,0,0,1],[0,0,0,1,1,0,0,1,1,1,0,0,1,1,1,1,0,0,1,1]],"displayWidth":172,"displayHeight":172,"spacing":100,"style":{"gridBorderColor":"#ffffff","gridBorderWidth":"3","dotColor":"#ffffff","dotLineWidth":"1"}},"pluginResponse":[{"startTime":412623.49999975413,"rt":2481.0000001452863,"response":[{"id":0,"name":"Left","answer":50,"prompt":"Left","lastChangedTime":null},{"id":1,"name":"Right","answer":"100","prompt":"Right","lastChangedTime":414572.4999997765}],"stimulusOffTime":900.000000372529,"trial_type":"canvas-sliders-response","trial_index":63,"time_elapsed":414874,"internal_node_id":"0.0-15.0-0.0"},{"choiceTime":0,"choice":3,"totalTime":2003.000000026077,"image":"http://localhost:8080/ExploringSocialMetacognition/assets/image/advisor1.png","adviceTime":2003.000000026077,"trial_type":"jspsych-jas-present-advice-choice","trial_index":64,"time_elapsed":416877,"internal_node_id":"0.0-15.0-1.0"},{"startTime":417108.5000000894,"rt":2084.999999962747,"response":[{"id":0,"name":"Left","answer":50,"prompt":"Left","lastChangedTime":null},{"id":1,"name":"Right","answer":"100","prompt":"Right","lastChangedTime":418661.4999999292}],"trial_type":"canvas-sliders-response","trial_index":65,"time_elapsed":418964,"internal_node_id":"0.0-15.0-2.0"}],"confidenceCategory":0,"advisorAgrees":true,"advice":{"filePath":"assets/audio/voices/3/think_right.wav","string":"I think it was on the RIGHT","loaded":true,"loading":true,"data":null,"buffer":{},"side":1,"confidence":0}},{"type":1,"typeName":"force","block":3,"advisorId":2,"choice":[],"answer":[1,1],"confidence":[100,100],"whichSide":1,"practice":false,"feedback":false,"warnings":[],"stimulusDrawTime":[420097.500000149],"stimulusOffTime":[900.000000372529,null],"fixationDrawTime":[419596.4999999851],"id":21,"dotDifference":18,"grid":{"dotCountL":182,"dotCountR":218,"gridWidth":20,"gridHeight":20,"dotWidth":2,"dotHeight":2,"paddingX":6,"paddingY":6,"gridL":[[0,1,1,0,0,1,0,1,1,0,1,0,0,0,0,0,1,0,0,1],[1,1,0,1,1,0,0,1,1,0,0,1,1,1,1,1,1,1,0,0],[1,1,1,0,0,1,0,0,1,0,0,1,0,0,1,0,1,1,0,1],[1,0,1,0,0,1,1,0,0,0,0,0,1,0,0,1,0,0,1,1],[0,0,1,0,0,0,1,0,1,1,0,0,1,0,1,0,0,0,0,1],[0,0,0,1,1,0,1,1,1,1,1,0,0,0,0,1,0,1,0,1],[0,0,0,0,0,1,0,0,0,0,1,1,1,1,0,1,1,0,0,1],[1,1,1,1,1,0,0,1,0,1,1,1,1,1,0,0,0,0,1,0],[0,1,1,0,1,1,0,0,0,1,0,0,1,0,1,1,0,0,0,1],[0,1,0,0,1,0,0,0,0,0,1,1,1,0,1,0,0,1,0,0],[0,0,1,1,0,1,0,0,0,1,1,1,0,0,1,0,0,0,0,0],[1,0,1,1,0,1,1,1,1,1,0,0,0,0,0,1,0,1,1,1],[0,1,1,1,0,1,1,0,1,1,1,0,0,0,1,0,0,0,1,0],[0,1,0,0,1,1,1,0,0,1,0,1,1,0,1,1,0,0,0,1],[1,0,0,1,1,1,0,0,0,1,0,1,0,0,1,1,1,0,0,0],[0,1,0,0,0,0,0,1,0,1,1,0,0,0,1,1,0,1,0,0],[0,1,1,0,1,1,0,0,1,0,1,0,0,1,0,0,0,0,0,0],[1,1,0,0,1,1,1,0,1,0,0,0,1,0,1,0,0,1,1,1],[1,1,1,0,1,0,0,1,0,0,0,1,0,0,0,0,0,1,0,0],[1,0,1,1,1,1,0,0,0,1,0,0,0,1,1,1,1,0,0,0]],"gridR":[[1,0,0,1,1,1,1,1,1,1,0,1,1,0,1,0,1,1,0,0],[0,1,1,1,0,1,1,1,1,0,1,0,0,0,1,1,0,0,1,0],[1,1,0,0,1,1,1,1,0,1,1,1,0,1,1,0,0,0,0,1],[0,1,1,0,1,1,0,0,1,1,1,0,1,1,1,0,0,0,1,0],[0,1,0,1,0,0,1,0,1,0,1,1,1,0,0,1,1,0,1,0],[0,1,0,0,0,0,0,0,1,1,0,1,0,1,1,1,1,1,1,1],[0,1,1,1,0,1,0,1,0,1,1,0,0,1,1,0,0,0,1,0],[0,1,0,1,1,0,1,0,1,0,1,0,0,1,0,0,0,1,0,0],[1,0,0,0,1,1,1,0,0,1,1,1,0,0,1,0,0,1,1,1],[0,1,1,1,0,1,0,1,0,1,0,1,0,1,1,0,1,1,1,0],[0,1,0,1,1,0,1,0,0,1,0,0,0,1,1,1,1,1,0,1],[0,0,0,1,1,0,1,1,0,0,0,0,0,1,1,0,1,1,0,1],[0,1,0,1,1,0,0,1,0,0,0,0,0,1,1,0,0,1,0,1],[1,1,1,0,0,0,0,1,1,1,1,0,1,1,0,1,1,1,1,0],[1,1,1,0,1,1,1,1,1,1,0,1,0,1,1,0,0,0,1,0],[0,1,1,0,1,0,1,0,1,1,0,0,0,1,0,1,0,1,0,1],[1,0,0,1,0,0,0,1,0,1,0,1,0,0,1,1,0,0,0,0],[1,0,1,1,0,1,1,1,1,1,0,1,1,0,0,0,1,1,1,1],[1,1,0,0,1,1,1,0,0,1,0,0,1,0,0,1,0,1,1,0],[0,1,1,1,1,0,1,1,0,1,1,0,1,1,1,1,0,1,1,0]],"displayWidth":172,"displayHeight":172,"spacing":100,"style":{"gridBorderColor":"#ffffff","gridBorderWidth":"3","dotColor":"#ffffff","dotLineWidth":"1"}},"pluginResponse":[{"startTime":419396.49999979883,"rt":2684.000000357628,"response":[{"id":0,"name":"Left","answer":50,"prompt":"Left","lastChangedTime":null},{"id":1,"name":"Right","answer":"100","prompt":"Right","lastChangedTime":421577.5000001304}],"stimulusOffTime":900.000000372529,"trial_type":"canvas-sliders-response","trial_index":66,"time_elapsed":421850,"internal_node_id":"0.0-15.0-0.1"},{"choiceTime":0,"choice":2,"totalTime":2003.000000026077,"image":"http://localhost:8080/ExploringSocialMetacognition/assets/image/advisor2.png","adviceTime":2003.000000026077,"trial_type":"jspsych-jas-present-advice-choice","trial_index":67,"time_elapsed":423852,"internal_node_id":"0.0-15.0-1.1"},{"startTime":424084.4999998808,"rt":1268.0000001564622,"response":[{"id":0,"name":"Left","answer":50,"prompt":"Left","lastChangedTime":null},{"id":1,"name":"Right","answer":"100","prompt":"Right","lastChangedTime":424939.49999986216}],"trial_type":"canvas-sliders-response","trial_index":68,"time_elapsed":425122,"internal_node_id":"0.0-15.0-2.1"}],"confidenceCategory":0,"advisorAgrees":true,"advice":{"filePath":"assets/audio/voices/1/right_think.wav","string":"It was on the RIGHT, I think","loaded":true,"loading":true,"data":null,"buffer":{},"side":1,"confidence":0}},{"type":1,"typeName":"force","block":3,"advisorId":2,"choice":[],"answer":[0,0],"confidence":[100,100],"whichSide":1,"practice":false,"feedback":false,"warnings":[],"stimulusDrawTime":[426255.4999999702],"stimulusOffTime":[900.000000372529,null],"fixationDrawTime":[425756.5000001341],"id":22,"dotDifference":15,"grid":{"dotCountL":185,"dotCountR":215,"gridWidth":20,"gridHeight":20,"dotWidth":2,"dotHeight":2,"paddingX":6,"paddingY":6,"gridL":[[0,1,1,0,0,0,0,1,0,1,0,0,0,1,0,0,1,0,1,1],[0,0,0,1,0,0,0,0,1,1,1,1,1,0,0,1,0,0,1,1],[0,1,0,0,0,1,0,0,1,0,1,1,1,0,1,1,1,0,0,0],[0,1,1,1,0,0,1,1,1,1,1,1,1,0,1,1,0,0,0,0],[0,1,1,1,1,1,0,0,0,0,0,1,0,0,0,1,0,1,1,1],[1,0,1,0,0,0,0,1,0,0,1,0,0,0,0,1,0,1,0,0],[1,1,0,1,1,0,1,1,0,0,1,0,0,1,0,0,1,0,1,1],[0,0,0,0,0,1,0,1,1,0,1,0,0,0,0,1,0,0,1,0],[1,0,0,0,0,0,1,1,1,0,1,0,0,0,0,1,1,0,1,1],[1,1,0,1,0,1,1,1,1,0,1,0,1,1,0,0,1,1,0,0],[1,0,1,0,1,0,0,0,0,1,0,1,0,0,0,0,0,1,0,1],[0,0,0,0,0,1,1,1,1,1,1,0,1,1,1,1,1,1,0,1],[1,0,0,1,1,0,1,0,1,0,0,0,1,0,0,0,0,0,1,1],[0,0,0,1,0,1,1,1,1,0,0,0,0,0,0,1,1,0,0,1],[0,0,0,1,1,0,0,0,0,1,1,1,0,1,0,0,0,0,1,0],[1,1,0,0,1,1,0,0,1,1,1,1,1,0,1,1,1,0,1,1],[1,0,0,0,0,0,0,1,0,1,0,1,0,0,0,0,1,1,1,1],[0,1,0,0,1,1,0,0,1,0,1,0,0,1,1,0,0,0,1,0],[0,0,1,0,0,0,1,1,1,1,0,1,0,1,0,1,0,1,0,1],[0,1,1,1,1,1,0,0,0,1,0,1,0,0,1,0,1,0,0,1]],"gridR":[[1,1,1,1,1,0,1,1,1,0,1,0,0,0,1,0,1,1,1,0],[0,0,1,1,0,1,1,0,0,1,1,0,0,0,1,0,0,0,1,1],[1,0,1,1,0,0,0,0,0,1,0,0,1,0,0,1,0,1,1,1],[1,0,1,1,1,1,1,1,1,0,1,0,0,1,1,1,0,1,1,1],[1,0,0,0,0,0,1,0,1,1,1,0,0,1,1,1,1,0,0,1],[1,1,0,1,0,1,1,0,0,1,1,1,1,0,0,1,1,1,1,0],[0,1,0,0,1,1,1,1,0,0,1,0,0,0,0,0,0,1,0,1],[0,1,1,1,0,1,1,0,1,1,1,1,0,0,0,1,0,0,1,1],[1,0,0,0,1,0,1,1,0,0,1,1,1,0,0,0,1,0,1,1],[1,1,0,0,1,1,0,0,1,1,1,0,0,1,1,1,0,0,1,0],[1,1,0,1,1,1,1,1,1,0,1,1,1,0,0,1,1,1,1,0],[1,0,0,1,0,0,0,1,1,0,1,1,0,1,0,0,1,0,1,1],[1,1,1,0,1,0,0,1,0,1,1,0,1,1,0,0,0,0,1,0],[0,1,1,1,1,1,1,1,0,1,0,0,1,1,1,0,0,1,0,1],[0,1,1,1,0,1,1,0,0,1,0,1,1,0,0,1,0,0,0,1],[0,0,1,0,0,1,0,0,0,1,1,0,1,0,1,1,1,0,1,0],[0,1,0,0,0,0,1,1,0,0,0,1,1,0,0,0,0,1,0,0],[0,0,1,1,1,0,1,1,1,1,1,0,0,0,0,1,1,1,0,1],[0,0,0,0,0,1,1,1,0,0,1,1,0,1,0,1,1,1,1,1],[1,0,0,1,1,0,0,1,0,0,0,1,1,1,0,0,1,0,0,1]],"displayWidth":172,"displayHeight":172,"spacing":100,"style":{"gridBorderColor":"#ffffff","gridBorderWidth":"3","dotColor":"#ffffff","dotLineWidth":"1"}},"pluginResponse":[{"startTime":425555.49999978393,"rt":2638.9999999664724,"response":[{"id":0,"name":"Left","answer":100,"prompt":"Left","lastChangedTime":427711.49999974295},{"id":1,"name":"Right","answer":"50","prompt":"Right","lastChangedTime":null}],"stimulusOffTime":900.000000372529,"trial_type":"canvas-sliders-response","trial_index":69,"time_elapsed":427964,"internal_node_id":"0.0-15.0-0.2"},{"choiceTime":0,"choice":2,"totalTime":2003.000000026077,"image":"http://localhost:8080/ExploringSocialMetacognition/assets/image/advisor2.png","adviceTime":2003.000000026077,"trial_type":"jspsych-jas-present-advice-choice","trial_index":70,"time_elapsed":429969,"internal_node_id":"0.0-15.0-1.2"},{"startTime":430200.49999980256,"rt":2754.00000018999,"response":[{"id":0,"name":"Left","answer":100,"prompt":"Left","lastChangedTime":432249.49999991804},{"id":1,"name":"Right","answer":"50","prompt":"Right","lastChangedTime":null}],"trial_type":"canvas-sliders-response","trial_index":71,"time_elapsed":432724,"internal_node_id":"0.0-15.0-2.2"}],"confidenceCategory":0,"advisorAgrees":false,"advice":{"filePath":"assets/audio/voices/1/think_left.wav","string":"I think it was on the LEFT","loaded":true,"loading":true,"data":null,"buffer":{},"side":0,"confidence":0}},{"type":1,"typeName":"force","block":3,"advisorId":2,"choice":[],"answer":[1,1],"confidence":[100,100],"whichSide":0,"practice":false,"feedback":false,"warnings":[],"stimulusDrawTime":[433855.50000006333],"stimulusOffTime":[899.9999999068677,null],"fixationDrawTime":[433355.50000006333],"id":23,"dotDifference":18,"grid":{"dotCountL":218,"dotCountR":182,"gridWidth":20,"gridHeight":20,"dotWidth":2,"dotHeight":2,"paddingX":6,"paddingY":6,"gridL":[[1,1,1,1,0,0,1,0,0,0,1,1,0,1,1,1,0,0,0,0],[1,0,0,0,1,1,0,0,1,1,1,0,0,0,0,0,1,0,1,1],[0,1,0,0,0,1,0,0,1,1,0,0,1,1,1,0,1,1,1,0],[0,0,1,1,1,0,0,0,1,0,0,0,1,0,1,1,1,0,1,1],[0,1,1,0,0,1,1,0,0,0,0,0,1,1,1,0,1,0,1,0],[1,0,1,1,1,0,0,1,1,1,0,0,0,1,1,1,0,0,0,0],[1,1,1,0,0,0,1,1,0,0,1,1,1,0,0,1,1,0,1,0],[0,1,1,1,0,1,0,0,1,1,0,1,1,0,0,1,1,1,0,0],[1,1,0,0,0,1,0,1,0,1,0,0,1,1,0,1,1,0,1,0],[0,1,1,1,1,0,1,0,0,0,1,0,0,0,0,1,1,0,1,1],[1,0,1,1,1,0,1,1,1,1,0,0,0,1,1,0,1,1,1,0],[1,1,0,1,1,1,0,1,1,1,0,1,1,1,0,0,1,0,0,1],[1,0,0,1,1,1,1,0,1,1,1,1,0,1,1,0,0,1,0,1],[0,0,1,0,1,1,1,1,1,1,0,0,1,1,0,0,1,1,1,0],[1,1,0,0,0,0,0,1,1,1,1,1,1,0,1,1,0,1,0,0],[0,1,1,0,0,1,1,0,1,0,0,0,1,1,0,0,0,1,0,0],[0,1,1,0,0,1,1,1,1,0,1,0,1,0,0,1,0,0,1,1],[1,1,1,1,1,0,1,1,0,0,0,0,1,1,1,1,1,0,1,0],[1,0,1,1,1,0,0,1,1,0,0,1,1,1,1,0,0,1,0,0],[0,1,1,1,1,1,1,0,1,0,0,1,1,0,1,1,0,1,0,1]],"gridR":[[0,1,0,0,1,1,0,1,1,1,1,0,1,0,1,1,0,0,0,0],[1,0,1,0,1,1,1,0,1,0,0,0,1,1,1,0,0,0,0,1],[1,0,1,0,1,1,0,0,0,0,0,0,1,1,1,1,0,0,1,0],[1,1,0,0,0,1,0,0,1,0,0,1,0,1,0,1,1,1,1,0],[0,0,1,0,1,0,1,0,0,0,1,1,0,1,1,0,0,0,0,1],[0,0,0,0,0,0,0,0,1,1,0,1,0,1,0,0,0,0,0,1],[1,1,1,0,0,1,0,1,1,1,0,0,0,1,1,1,1,0,0,0],[1,0,0,1,1,1,0,0,0,1,0,0,0,0,0,1,0,0,0,1],[1,1,0,1,0,0,0,1,1,0,1,0,0,0,1,0,1,1,0,0],[1,0,0,0,1,1,1,0,0,0,0,0,0,1,1,0,0,1,0,0],[0,0,1,0,1,1,1,0,0,0,1,0,1,0,0,0,0,0,0,0],[0,1,1,0,1,1,1,0,1,1,0,0,1,0,1,0,0,1,1,1],[1,1,1,0,1,0,0,0,0,0,0,0,1,0,1,0,1,0,1,1],[0,0,0,1,1,1,0,0,1,1,1,0,1,0,0,0,0,0,0,1],[1,1,1,0,0,0,1,1,1,1,0,0,1,1,0,0,1,1,0,1],[0,1,0,0,0,0,0,0,1,0,0,1,0,0,0,1,1,1,1,0],[1,0,1,1,0,1,0,0,0,0,1,0,0,1,0,0,0,1,1,0],[1,1,0,0,1,0,1,1,1,0,1,1,0,0,0,0,0,1,0,0],[1,1,0,0,1,1,0,1,1,1,0,0,1,1,1,1,1,0,1,0],[1,1,0,1,1,0,0,1,1,0,1,1,0,0,1,0,1,0,1,1]],"displayWidth":172,"displayHeight":172,"spacing":100,"style":{"gridBorderColor":"#ffffff","gridBorderWidth":"3","dotColor":"#ffffff","dotLineWidth":"1"}},"pluginResponse":[{"startTime":433155.49999987707,"rt":3771.000000182539,"response":[{"id":0,"name":"Left","answer":50,"prompt":"Left","lastChangedTime":null},{"id":1,"name":"Right","answer":"100","prompt":"Right","lastChangedTime":436261.50000002235}],"stimulusOffTime":899.9999999068677,"trial_type":"canvas-sliders-response","trial_index":72,"time_elapsed":436697,"internal_node_id":"0.0-15.0-0.3"},{"choiceTime":0,"choice":2,"totalTime":2002.0000003278255,"image":"http://localhost:8080/ExploringSocialMetacognition/assets/image/advisor2.png","adviceTime":2002.0000003278255,"trial_type":"jspsych-jas-present-advice-choice","trial_index":73,"time_elapsed":438699,"internal_node_id":"0.0-15.0-1.3"},{"startTime":438930.49999978393,"rt":1928.0000003054738,"response":[{"id":0,"name":"Left","answer":50,"prompt":"Left","lastChangedTime":null},{"id":1,"name":"Right","answer":"100","prompt":"Right","lastChangedTime":440211.49999974295}],"trial_type":"canvas-sliders-response","trial_index":74,"time_elapsed":440627,"internal_node_id":"0.0-15.0-2.3"}],"confidenceCategory":0,"advisorAgrees":false,"advice":{"filePath":"assets/audio/voices/1/right_think.wav","string":"It was on the RIGHT, I think","loaded":true,"loading":true,"data":null,"buffer":{},"side":1,"confidence":0}},{"type":2,"typeName":"choice","block":3,"advisorId":2,"choice":[3,2],"answer":[1,0],"confidence":[100,99],"whichSide":1,"practice":false,"feedback":false,"warnings":[],"stimulusDrawTime":[441760.49999985844],"stimulusOffTime":[901.0000000707805,null],"fixationDrawTime":[441260.49999985844],"id":24,"dotDifference":21,"grid":{"dotCountL":179,"dotCountR":221,"gridWidth":20,"gridHeight":20,"dotWidth":2,"dotHeight":2,"paddingX":6,"paddingY":6,"gridL":[[1,0,0,0,1,0,0,0,1,0,1,0,1,0,1,0,1,0,1,0],[0,1,1,1,1,1,0,1,0,0,0,0,0,1,0,0,1,0,0,0],[1,1,0,1,0,0,0,1,0,0,1,0,0,0,0,1,0,1,0,0],[0,0,0,1,1,0,1,1,0,0,1,0,0,0,0,0,0,1,0,0],[1,0,1,0,1,0,0,1,1,1,0,1,0,0,1,0,1,0,1,0],[0,1,1,1,1,0,1,1,1,0,1,0,1,1,1,0,1,0,1,0],[0,0,0,1,0,0,0,0,0,1,1,1,0,0,0,1,1,1,0,1],[1,1,1,0,0,0,1,0,1,0,1,0,0,0,0,0,1,1,0,1],[0,1,1,0,0,1,0,1,1,0,1,1,1,1,1,1,1,0,1,1],[0,1,0,0,0,0,0,0,1,1,0,0,0,1,0,0,1,0,0,1],[0,1,0,1,1,1,0,0,1,0,1,1,0,0,1,1,0,1,1,1],[1,0,1,0,0,1,0,0,0,1,1,0,1,1,0,0,0,1,1,1],[0,1,0,0,0,1,0,0,1,0,0,0,0,1,1,0,1,0,1,0],[1,1,0,0,0,0,0,1,1,0,0,1,0,1,1,1,0,1,0,0],[1,1,0,0,1,1,1,0,0,1,0,1,0,0,1,1,1,1,1,0],[1,0,1,1,0,1,1,1,1,0,1,1,1,1,0,0,0,0,0,1],[1,0,0,0,0,0,0,1,1,0,1,0,0,0,1,0,0,0,0,0],[1,1,0,0,0,1,0,1,1,1,1,0,0,0,0,0,0,1,0,0],[0,0,1,0,0,1,1,1,1,0,0,0,0,0,0,1,0,0,0,1],[0,1,1,1,0,0,1,0,0,0,1,0,0,1,1,1,0,0,0,0]],"gridR":[[0,0,1,1,0,1,0,1,0,0,0,1,0,1,1,0,1,1,1,0],[1,1,0,1,0,1,1,1,0,1,0,1,0,1,1,1,1,1,1,1],[0,0,1,0,0,0,0,0,0,1,1,0,1,1,0,0,1,1,0,0],[1,0,0,0,0,0,1,1,0,0,1,1,1,1,1,1,1,1,0,1],[0,0,1,0,0,1,1,1,1,1,0,1,1,1,1,1,1,1,1,0],[1,0,1,1,0,1,1,0,0,0,1,1,1,1,1,0,1,1,1,0],[1,0,0,0,1,1,1,1,0,1,0,1,1,1,1,1,1,0,1,0],[1,1,0,0,0,0,1,1,1,0,1,1,1,0,0,1,0,0,1,0],[0,1,0,1,1,0,0,1,0,1,0,0,1,1,1,0,0,1,1,1],[1,0,1,1,0,1,0,0,0,0,1,0,0,1,1,1,1,0,1,0],[0,1,0,1,1,1,1,1,1,0,0,0,0,1,1,1,0,0,0,1],[1,0,1,0,1,1,1,1,1,0,1,1,1,1,1,1,1,1,1,0],[0,1,1,0,1,0,0,0,1,1,1,1,0,0,1,0,0,1,1,0],[1,1,0,1,0,0,0,0,0,0,0,1,1,1,0,1,1,1,0,0],[0,0,0,0,1,0,0,1,1,1,0,0,0,0,0,0,0,0,1,1],[1,0,1,0,1,0,0,1,1,0,0,0,0,1,0,1,0,1,0,0],[1,1,1,0,0,1,1,1,0,0,1,0,0,0,0,1,0,1,1,1],[1,0,1,1,1,0,0,1,1,0,0,1,1,0,1,1,1,1,0,1],[1,0,1,0,0,0,0,1,1,1,1,0,1,0,0,1,0,1,1,1],[0,0,0,1,0,1,1,1,0,0,1,0,0,1,1,1,1,1,0,1]],"displayWidth":172,"displayHeight":172,"spacing":100,"style":{"gridBorderColor":"#ffffff","gridBorderWidth":"3","dotColor":"#ffffff","dotLineWidth":"1"}},"pluginResponse":[{"startTime":441059.4999999739,"rt":3075.999999884516,"response":[{"id":0,"name":"Left","answer":50,"prompt":"Left","lastChangedTime":null},{"id":1,"name":"Right","answer":"100","prompt":"Right","lastChangedTime":443586.49999974295}],"stimulusOffTime":901.0000000707805,"trial_type":"canvas-sliders-response","trial_index":75,"time_elapsed":443906,"internal_node_id":"0.0-15.0-0.4"},{"choiceTime":930.9999998658895,"choice":2,"totalTime":2932.999999728054,"image":"http://localhost:8080/ExploringSocialMetacognition/assets/image/advisor2.png","adviceTime":2001.9999998621643,"trial_type":"jspsych-jas-present-advice-choice","trial_index":76,"time_elapsed":446839,"internal_node_id":"0.0-15.0-1.4"},{"startTime":447070.4999999143,"rt":1601.000000257045,"response":[{"id":0,"name":"Left","answer":99,"prompt":"Left","lastChangedTime":448123.49999975413},{"id":1,"name":"Right","answer":"50","prompt":"Right","lastChangedTime":null}],"trial_type":"canvas-sliders-response","trial_index":77,"time_elapsed":448442,"internal_node_id":"0.0-15.0-2.4"}],"confidenceCategory":0,"advisorAgrees":false,"advice":{"filePath":"assets/audio/voices/1/think_left.wav","string":"I think it was on the LEFT","loaded":true,"loading":true,"data":null,"buffer":{},"side":0,"confidence":0}},{"type":2,"typeName":"choice","block":3,"advisorId":2,"choice":[3,2],"answer":[0,0],"confidence":[100,100],"whichSide":1,"practice":false,"feedback":false,"warnings":[],"stimulusDrawTime":[449574.5000001043],"stimulusOffTime":[899.9999999068677,null],"fixationDrawTime":[449075.49999980256],"id":25,"dotDifference":21,"grid":{"dotCountL":179,"dotCountR":221,"gridWidth":20,"gridHeight":20,"dotWidth":2,"dotHeight":2,"paddingX":6,"paddingY":6,"gridL":[[0,0,1,0,0,0,0,1,1,0,0,0,0,0,1,0,0,1,0,0],[0,0,1,1,0,1,0,0,1,0,0,0,0,0,0,1,0,0,0,1],[0,0,0,0,1,0,0,0,0,0,1,0,1,1,0,0,1,1,1,1],[0,0,1,1,1,0,1,0,1,1,1,0,0,0,1,0,1,0,1,0],[1,1,1,0,1,0,0,1,0,1,1,1,1,0,1,1,0,0,1,1],[0,0,1,1,1,0,0,1,0,0,0,0,1,1,0,1,1,1,0,1],[1,0,1,1,1,1,1,1,1,1,0,0,0,0,0,0,0,1,1,0],[0,0,1,0,0,1,1,1,0,0,0,1,0,1,1,0,1,0,1,1],[0,0,1,1,1,0,1,0,1,0,0,1,0,0,1,0,0,0,1,0],[1,0,0,1,1,1,1,0,1,1,1,0,1,1,1,0,0,1,1,1],[0,0,0,1,1,0,0,0,1,0,1,0,0,1,0,0,0,1,1,0],[1,0,0,1,1,0,1,0,1,0,1,0,1,0,0,0,1,1,0,1],[0,0,1,1,0,0,1,0,1,0,0,0,0,0,1,0,1,0,0,1],[1,0,1,0,1,0,0,0,0,0,0,1,1,0,1,0,0,0,0,1],[1,1,1,1,0,1,1,0,0,1,1,1,0,0,1,0,0,0,0,0],[1,1,1,0,1,0,1,0,0,1,1,1,0,0,1,0,0,0,0,0],[1,0,0,1,1,0,0,1,1,0,0,0,1,0,1,1,0,0,0,1],[1,1,0,0,1,1,1,0,1,1,0,0,0,1,0,1,0,1,1,0],[1,0,1,1,0,0,0,1,0,1,0,0,1,0,0,0,0,0,0,1],[1,1,0,0,0,1,0,0,1,0,0,0,0,0,0,1,1,1,0,0]],"gridR":[[0,1,0,0,0,1,1,1,0,1,1,1,1,0,0,0,1,0,0,0],[1,0,0,1,1,0,0,0,1,0,1,1,1,0,0,0,1,0,1,1],[0,1,0,1,1,0,0,1,0,0,0,0,0,1,1,0,1,0,1,1],[1,1,0,0,0,0,1,1,1,1,0,1,1,1,1,1,1,0,0,1],[0,1,1,1,0,0,1,0,0,0,1,1,1,0,1,0,1,1,0,1],[0,0,1,0,1,1,0,0,0,1,0,0,1,1,1,1,0,1,0,0],[0,0,1,0,1,0,1,1,0,1,1,1,1,0,1,1,1,1,1,1],[1,0,0,0,0,0,1,0,0,0,0,1,1,0,1,1,1,1,1,0],[1,1,1,0,0,0,0,0,0,0,1,0,1,1,1,0,0,1,1,0],[1,1,0,0,1,1,0,1,0,0,1,1,0,0,1,1,0,1,0,1],[0,0,1,1,0,0,0,0,1,0,0,0,1,1,1,1,1,1,1,0],[1,1,1,1,1,0,1,1,1,1,1,0,1,0,0,0,1,1,0,0],[1,0,0,0,0,1,0,1,0,1,0,1,0,1,1,0,1,1,0,0],[0,1,0,0,1,1,1,1,1,1,1,1,1,0,1,1,1,1,1,1],[0,1,1,0,0,0,1,1,0,1,1,1,1,0,1,1,0,1,0,0],[1,0,1,0,1,1,0,1,1,0,1,0,0,0,1,1,0,1,1,1],[1,0,1,0,1,1,0,1,1,0,1,0,0,1,1,0,0,1,1,1],[1,1,1,1,1,1,0,0,1,1,0,1,0,0,0,0,1,1,0,1],[0,0,0,0,0,1,1,1,1,1,1,1,1,0,1,1,1,1,1,0],[0,1,1,0,0,0,0,1,1,1,1,0,1,0,1,1,0,0,0,0]],"displayWidth":172,"displayHeight":172,"spacing":100,"style":{"gridBorderColor":"#ffffff","gridBorderWidth":"3","dotColor":"#ffffff","dotLineWidth":"1"}},"pluginResponse":[{"startTime":448874.49999991804,"rt":3589.000000152737,"response":[{"id":0,"name":"Left","answer":100,"prompt":"Left","lastChangedTime":451589.49999976903},{"id":1,"name":"Right","answer":"50","prompt":"Right","lastChangedTime":null}],"stimulusOffTime":899.9999999068677,"trial_type":"canvas-sliders-response","trial_index":78,"time_elapsed":452234,"internal_node_id":"0.0-15.0-0.5"},{"choiceTime":820.9999999962747,"choice":2,"totalTime":2823.0000003241003,"image":"http://localhost:8080/ExploringSocialMetacognition/assets/image/advisor2.png","adviceTime":2002.0000003278255,"trial_type":"jspsych-jas-present-advice-choice","trial_index":79,"time_elapsed":455057,"internal_node_id":"0.0-15.0-1.5"},{"startTime":455288.4999997914,"rt":1604.000000283122,"response":[{"id":0,"name":"Left","answer":100,"prompt":"Left","lastChangedTime":456249.49999991804},{"id":1,"name":"Right","answer":"50","prompt":"Right","lastChangedTime":null}],"trial_type":"canvas-sliders-response","trial_index":80,"time_elapsed":456662,"internal_node_id":"0.0-15.0-2.5"}],"confidenceCategory":0,"advisorAgrees":false,"advice":{"filePath":"assets/audio/voices/1/left_think.wav","string":"It was on the LEFT, I think","loaded":true,"loading":true,"data":null,"buffer":{},"side":0,"confidence":0}},{"type":1,"typeName":"force","block":3,"advisorId":2,"choice":[],"answer":[1,1],"confidence":[100,100],"whichSide":1,"practice":false,"feedback":false,"warnings":[],"stimulusDrawTime":[457793.5000001453],"stimulusOffTime":[899.9999999068677,null],"fixationDrawTime":[457293.5000001453],"id":26,"dotDifference":24,"grid":{"dotCountL":176,"dotCountR":224,"gridWidth":20,"gridHeight":20,"dotWidth":2,"dotHeight":2,"paddingX":6,"paddingY":6,"gridL":[[0,0,0,0,1,1,0,1,0,0,1,0,1,1,1,0,0,0,1,1],[0,1,0,1,0,1,0,0,0,0,1,1,1,1,0,0,0,1,0,0],[0,1,0,1,0,0,0,0,1,0,1,1,1,0,1,1,0,0,1,1],[0,0,1,0,0,1,1,1,1,0,0,1,1,1,1,1,0,0,0,0],[1,1,0,1,1,0,0,1,1,1,0,0,0,1,0,0,0,1,1,0],[0,1,1,1,0,1,1,0,0,0,1,0,1,0,1,1,0,0,0,1],[0,0,1,0,0,0,1,0,0,1,1,1,0,0,0,0,0,1,1,1],[0,1,0,1,0,0,1,0,0,1,1,1,0,1,1,0,0,1,0,1],[1,0,1,0,1,1,1,0,0,0,0,1,0,0,0,0,1,0,0,1],[1,1,0,0,1,0,0,0,0,0,0,0,1,1,0,0,1,0,0,0],[0,0,0,1,0,0,0,0,1,0,0,0,1,1,0,0,0,0,0,0],[0,0,0,1,0,0,0,1,0,1,0,1,0,0,1,1,1,0,0,1],[0,1,1,0,0,1,1,0,1,0,0,0,0,0,0,0,0,1,0,0],[1,1,0,0,0,1,0,0,1,1,0,1,1,1,1,0,0,0,1,1],[1,1,0,1,0,1,0,1,0,1,0,1,0,1,0,0,1,0,1,1],[0,1,1,0,1,0,0,1,0,0,1,0,0,0,1,0,0,1,1,0],[1,0,1,0,0,0,1,0,1,1,1,0,1,0,0,0,1,1,0,1],[0,0,1,0,1,0,1,0,0,0,1,0,1,1,0,0,0,1,1,0],[0,0,1,0,1,0,1,1,0,1,1,1,1,1,0,0,0,1,1,0],[0,1,1,0,0,0,1,1,0,0,1,0,1,1,0,0,1,1,0,1]],"gridR":[[1,1,0,0,1,0,1,1,0,1,0,0,1,1,1,1,0,1,0,1],[1,0,1,0,0,1,0,0,1,1,1,0,0,1,1,1,1,1,0,0],[1,0,1,0,0,0,1,1,1,1,0,0,0,1,0,0,1,0,1,1],[1,1,0,1,0,1,1,0,1,1,0,1,1,1,1,1,1,0,0,1],[1,1,0,1,1,0,0,0,0,0,0,1,1,0,0,0,0,1,1,1],[1,1,0,1,0,0,0,0,0,0,1,1,0,1,1,0,0,1,1,0],[0,1,0,0,0,1,0,1,1,0,1,1,1,0,0,0,1,1,1,1],[1,1,0,0,0,0,1,0,1,1,1,1,0,1,0,0,1,0,1,0],[1,1,1,1,0,1,0,0,0,1,0,1,1,0,1,0,0,1,0,1],[0,1,0,1,1,1,1,1,1,1,0,1,1,0,1,1,0,1,1,0],[1,0,0,1,1,0,1,0,0,0,1,1,0,1,0,1,0,1,1,0],[0,0,1,0,1,1,0,0,1,1,1,1,1,1,0,0,0,0,1,1],[1,1,1,0,0,1,0,0,1,1,0,1,1,1,0,1,0,1,1,1],[1,0,0,0,1,0,1,1,0,0,1,0,0,0,0,0,1,0,0,0],[1,0,1,0,0,0,0,0,0,0,1,1,1,0,1,1,0,1,1,1],[0,1,1,1,1,0,1,1,1,1,1,0,1,1,1,1,1,0,1,1],[0,0,0,1,1,1,0,0,1,0,0,1,0,1,1,1,1,1,1,1],[1,1,1,0,1,1,1,0,0,0,0,0,0,0,0,1,1,1,0,1],[1,0,1,0,1,1,0,1,1,1,1,0,0,1,0,0,0,1,0,1],[1,1,1,1,1,1,1,1,1,1,0,0,1,0,1,1,1,0,0,0]],"displayWidth":172,"displayHeight":172,"spacing":100,"style":{"gridBorderColor":"#ffffff","gridBorderWidth":"3","dotColor":"#ffffff","dotLineWidth":"1"}},"pluginResponse":[{"startTime":457093.499999959,"rt":2776.0000000707805,"response":[{"id":0,"name":"Left","answer":50,"prompt":"Left","lastChangedTime":null},{"id":1,"name":"Right","answer":"100","prompt":"Right","lastChangedTime":459297.4999998696}],"stimulusOffTime":899.9999999068677,"trial_type":"canvas-sliders-response","trial_index":81,"time_elapsed":459639,"internal_node_id":"0.0-15.0-0.6"},{"choiceTime":0,"choice":2,"totalTime":2001.9999998621643,"image":"http://localhost:8080/ExploringSocialMetacognition/assets/image/advisor2.png","adviceTime":2001.9999998621643,"trial_type":"jspsych-jas-present-advice-choice","trial_index":82,"time_elapsed":461641,"internal_node_id":"0.0-15.0-1.6"},{"startTime":461872.5000000559,"rt":1745.9999998100102,"response":[{"id":0,"name":"Left","answer":50,"prompt":"Left","lastChangedTime":null},{"id":1,"name":"Right","answer":"100","prompt":"Right","lastChangedTime":463096.4999999851}],"trial_type":"canvas-sliders-response","trial_index":83,"time_elapsed":463389,"internal_node_id":"0.0-15.0-2.6"}],"confidenceCategory":0,"advisorAgrees":true,"advice":{"filePath":"assets/audio/voices/1/think_right.wav","string":"I think it was on the RIGHT","loaded":true,"loading":true,"data":null,"buffer":{},"side":1,"confidence":0}},{"type":2,"typeName":"choice","block":3,"advisorId":3,"choice":[2,3],"answer":[1,0],"confidence":[100,100],"whichSide":1,"practice":false,"feedback":false,"warnings":[],"stimulusDrawTime":[464521.49999979883],"stimulusOffTime":[899.9999999068677,null],"fixationDrawTime":[464021.49999979883],"id":27,"dotDifference":24,"grid":{"dotCountL":176,"dotCountR":224,"gridWidth":20,"gridHeight":20,"dotWidth":2,"dotHeight":2,"paddingX":6,"paddingY":6,"gridL":[[0,1,0,1,0,0,0,1,0,1,1,1,0,0,1,1,0,1,0,0],[0,1,1,1,1,0,1,0,1,1,0,0,0,1,1,0,0,1,1,0],[1,0,0,0,1,1,1,0,0,0,1,1,1,1,0,0,0,0,0,0],[0,0,0,1,0,1,0,1,0,0,1,1,0,0,0,1,0,1,1,0],[0,0,1,0,1,0,0,0,0,1,0,0,1,0,1,1,0,0,0,0],[1,0,0,1,1,0,0,1,1,1,1,0,0,0,1,1,1,1,0,0],[0,1,1,1,0,0,0,1,0,0,0,0,1,1,1,1,1,1,0,1],[1,0,1,0,0,0,0,1,1,0,1,1,0,1,0,1,1,0,0,0],[1,0,0,1,0,1,0,0,0,0,0,1,0,1,0,0,1,0,1,0],[1,0,0,0,0,0,1,1,0,0,1,0,0,0,1,0,0,0,0,1],[1,1,0,0,1,1,1,0,1,1,0,0,0,0,1,0,0,0,1,0],[1,0,0,0,0,1,1,0,0,0,0,0,1,0,1,1,0,1,1,1],[1,0,1,1,0,0,0,0,1,1,0,0,1,1,0,1,0,1,1,0],[0,0,0,0,0,1,1,1,0,0,0,1,0,0,0,0,0,0,1,0],[1,1,1,1,1,1,1,0,0,0,1,0,0,0,0,1,0,1,0,1],[0,0,1,0,0,0,1,0,0,0,0,1,0,0,0,1,0,0,0,0],[1,0,0,0,1,0,0,1,1,1,0,1,1,0,1,1,1,0,1,1],[0,1,1,0,0,1,1,1,1,0,0,0,1,0,0,1,0,1,0,1],[1,0,1,0,1,0,1,0,1,1,0,0,0,1,1,1,1,1,1,1],[1,0,0,1,1,1,0,0,0,0,0,1,0,0,1,0,0,0,1,0]],"gridR":[[0,1,0,0,1,1,1,1,1,1,1,1,0,0,0,1,1,1,1,0],[0,0,1,0,1,1,1,0,1,0,0,0,1,1,1,1,1,1,0,0],[1,1,0,1,0,0,1,1,1,0,1,1,1,1,0,1,0,0,1,1],[1,1,1,1,0,1,0,1,1,0,0,0,0,1,1,1,1,1,1,1],[0,1,0,1,1,1,1,1,1,1,0,1,1,0,0,1,0,1,0,1],[0,1,0,1,0,0,0,1,0,1,1,0,1,0,1,0,0,1,1,1],[1,0,1,0,0,1,0,1,1,1,0,1,1,1,0,0,0,1,1,1],[1,1,1,1,1,0,0,0,0,1,0,0,1,0,0,0,1,1,1,1],[1,1,1,0,1,1,1,1,0,0,0,1,0,1,0,0,1,1,1,0],[1,1,1,1,0,1,1,1,1,1,0,1,1,0,1,0,0,1,0,1],[1,0,1,1,1,1,0,0,0,0,0,0,0,1,0,0,0,1,0,1],[0,1,0,1,0,1,1,1,0,1,0,1,0,0,1,0,0,0,1,0],[0,1,0,1,1,0,0,1,0,0,1,1,0,0,1,0,1,1,1,1],[0,1,1,1,1,1,1,0,1,0,1,1,0,0,0,0,0,0,1,1],[0,0,0,0,0,1,1,0,0,0,1,1,0,0,1,0,1,1,0,0],[0,0,0,0,1,1,0,0,1,0,1,1,1,0,1,1,0,1,1,0],[1,1,0,1,0,1,1,0,1,0,0,0,0,0,1,0,1,0,1,0],[1,0,1,1,1,1,1,0,1,0,0,0,1,1,1,1,0,0,1,0],[1,0,1,1,1,1,1,1,1,1,0,0,0,0,1,1,0,0,1,1],[1,1,0,1,0,1,0,1,1,0,0,1,0,1,0,0,1,0,1,1]],"displayWidth":172,"displayHeight":172,"spacing":100,"style":{"gridBorderColor":"#ffffff","gridBorderWidth":"3","dotColor":"#ffffff","dotLineWidth":"1"}},"pluginResponse":[{"startTime":463821.50000007823,"rt":3078.999999910593,"response":[{"id":0,"name":"Left","answer":50,"prompt":"Left","lastChangedTime":null},{"id":1,"name":"Right","answer":"100","prompt":"Right","lastChangedTime":466268.49999977276}],"stimulusOffTime":899.9999999068677,"trial_type":"canvas-sliders-response","trial_index":84,"time_elapsed":466670,"internal_node_id":"0.0-15.0-0.7"},{"choiceTime":966.9999997131526,"choice":3,"totalTime":2968.999999575317,"image":"http://localhost:8080/ExploringSocialMetacognition/assets/image/advisor1.png","adviceTime":2001.9999998621643,"trial_type":"jspsych-jas-present-advice-choice","trial_index":85,"time_elapsed":469640,"internal_node_id":"0.0-15.0-1.7"},{"startTime":469871.49999989197,"rt":2540.000000037253,"response":[{"id":0,"name":"Left","answer":100,"prompt":"Left","lastChangedTime":471804.5000000857},{"id":1,"name":"Right","answer":"50","prompt":"Right","lastChangedTime":null}],"trial_type":"canvas-sliders-response","trial_index":86,"time_elapsed":472181,"internal_node_id":"0.0-15.0-2.7"}],"confidenceCategory":0,"advisorAgrees":false,"advice":{"filePath":"assets/audio/voices/3/left_think.wav","string":"It was on the LEFT, I think","loaded":true,"loading":true,"data":null,"buffer":{},"side":0,"confidence":0}},{"type":1,"typeName":"force","block":3,"advisorId":3,"choice":[],"answer":[0,0],"confidence":[100,100],"whichSide":1,"practice":false,"feedback":false,"warnings":[],"stimulusDrawTime":[473312.5],"stimulusOffTime":[900.000000372529,null],"fixationDrawTime":[472812.5],"id":28,"dotDifference":21,"grid":{"dotCountL":179,"dotCountR":221,"gridWidth":20,"gridHeight":20,"dotWidth":2,"dotHeight":2,"paddingX":6,"paddingY":6,"gridL":[[0,0,0,1,0,1,1,0,1,1,0,0,0,1,1,0,1,0,0,1],[0,1,0,1,1,1,0,1,0,1,0,0,0,0,0,0,1,0,0,0],[1,1,1,0,0,1,0,0,1,1,1,1,1,1,0,1,0,1,0,0],[0,0,1,1,0,1,1,0,0,0,0,1,1,1,1,0,0,1,0,1],[0,0,0,1,1,0,1,0,0,1,1,0,0,1,0,0,0,1,0,0],[0,0,0,1,0,1,0,0,0,0,0,0,0,0,1,0,0,0