{"timeStart":1520346845892,"dotCount":200,"dotDifference":1,"difficultyStep":3,"advisors":[{"id":3,"adviceType":0,"voice":{"basePath":"","id":2,"name":"Bea","lines":{"think_left":{"filePath":"assets/audio/voices/2/think_left.wav","string":"I think it was on the LEFT","loaded":true,"loading":true,"data":null,"buffer":{},"side":0,"confidence":0},"think_right":{"filePath":"assets/audio/voices/2/think_right.wav","string":"I think it was on the RIGHT","loaded":true,"loading":true,"data":null,"buffer":{},"side":1,"confidence":0},"left_think":{"filePath":"assets/audio/voices/2/left_think.wav","string":"It was on the LEFT, I think","loaded":true,"loading":true,"data":null,"buffer":{},"side":0,"confidence":0},"right_think":{"filePath":"assets/audio/voices/2/right_think.wav","string":"It was on the RIGHT, I think","loaded":true,"loading":true,"data":null,"buffer":{},"side":1,"confidence":0},"intro":{"filePath":"assets/audio/voices/2/intro.wav","string":"Hello, my name is BEA","loaded":true,"loading":true,"data":null,"buffer":{},"side":false}}},"name":"Bea","portrait":{},"portraitSrc":"http://localhost:8080/ExploringSocialMetacognition/assets/image/advisor1.png"},{"id":1,"adviceType":2,"voice":{"basePath":"","id":1,"name":"Annie","lines":{"think_left":{"filePath":"assets/audio/voices/1/think_left.wav","string":"I think it was on the LEFT","loaded":true,"loading":true,"data":null,"buffer":{},"side":0,"confidence":0},"think_right":{"filePath":"assets/audio/voices/1/think_right.wav","string":"I think it was on the RIGHT","loaded":true,"loading":true,"data":null,"buffer":{},"side":1,"confidence":0},"left_think":{"filePath":"assets/audio/voices/1/left_think.wav","string":"It was on the LEFT, I think","loaded":true,"loading":true,"data":null,"buffer":{},"side":0,"confidence":0},"right_think":{"filePath":"assets/audio/voices/1/right_think.wav","string":"It was on the RIGHT, I think","loaded":true,"loading":true,"data":null,"buffer":{},"side":1,"confidence":0},"intro":{"filePath":"assets/audio/voices/1/intro.wav","string":"Hello, my name is ANNIE","loaded":true,"loading":true,"data":null,"buffer":{},"side":false}}},"name":"Annie","portrait":{},"portraitSrc":"http://localhost:8080/ExploringSocialMetacognition/assets/image/advisor2.png"},{"id":2,"adviceType":1,"voice":{"basePath":"","id":3,"name":"Kate","lines":{"think_left":{"filePath":"assets/audio/voices/3/think_left.wav","string":"I think it was on the LEFT","loaded":true,"loading":true,"data":null,"buffer":{},"side":0,"confidence":0},"think_right":{"filePath":"assets/audio/voices/3/think_right.wav","string":"I think it was on the RIGHT","loaded":true,"loading":true,"data":null,"buffer":{},"side":1,"confidence":0},"left_think":{"filePath":"assets/audio/voices/3/left_think.wav","string":"It was on the LEFT, I think","loaded":true,"loading":true,"data":null,"buffer":{},"side":0,"confidence":0},"right_think":{"filePath":"assets/audio/voices/3/right_think.wav","string":"It was on the RIGHT, I think","loaded":true,"loading":true,"data":null,"buffer":{},"side":1,"confidence":0},"intro":{"filePath":"assets/audio/voices/3/intro.wav","string":"Hello, my name is KATE","loaded":true,"loading":true,"data":null,"buffer":{},"side":false}}},"name":"Kate","portrait":{},"portraitSrc":"http://localhost:8080/ExploringSocialMetacognition/assets/image/advisor3.png"}],"blockCount":2,"blockStructure":{"0":0,"1":6,"2":6},"blockLength":12,"practiceBlockCount":1,"practiceBlockStructure":{"0":0,"1":4,"2":0},"practiceBlockLength":4,"preTrialInterval":200,"preStimulusInterval":500,"stimulusDuration":200,"feedbackDuration":200,"questionnaireFrequency":4,"questionnaireStack":[],"miscTrials":[{"view_history":"[{\"page_index\":0,\"viewing_time\":9647},{\"page_index\":1,\"viewing_time\":1657}]","rt":11304,"trial_type":"instructions","trial_index":0,"time_elapsed":11306,"internal_node_id":"0.0-0.0"},{"view_history":"[{\"page_index\":0,\"viewing_time\":1151}]","rt":1151,"trial_type":"instructions","trial_index":2,"time_elapsed":16209,"internal_node_id":"0.0-2.0"},{"view_history":"[{\"page_index\":0,\"viewing_time\":929}]","rt":929,"trial_type":"instructions","trial_index":4,"time_elapsed":20555,"internal_node_id":"0.0-4.0"},{"view_history":"[{\"page_index\":0,\"viewing_time\":754}]","rt":754,"trial_type":"instructions","trial_index":8,"time_elapsed":28941,"internal_node_id":"0.0-6.0"},{"view_history":"[{\"page_index\":0,\"viewing_time\":1365}]","rt":1365,"trial_type":"instructions","trial_index":22,"time_elapsed":73453,"internal_node_id":"0.0-9.0"},{"view_history":"[{\"page_index\":0,\"viewing_time\":874}]","rt":874,"trial_type":"instructions","trial_index":23,"time_elapsed":74328,"internal_node_id":"0.0-10.0"},{"view_history":"[{\"page_index\":0,\"viewing_time\":15653}]","rt":15653,"trial_type":"instructions","trial_index":62,"time_elapsed":195297,"internal_node_id":"0.0-14.0"}],"trials":[{"type":1,"typeName":"force","block":1,"advisorId":0,"choice":[],"answer":[0,null],"confidence":[100,null],"whichSide":0,"practice":true,"feedback":true,"warnings":[],"stimulusDrawTime":[12155.499999877065],"stimulusOffTime":[null],"fixationDrawTime":[11655.499999877065],"id":1,"dotDifference":30,"grid":{"dotCountL":230,"dotCountR":170,"gridWidth":20,"gridHeight":20,"dotWidth":2,"dotHeight":2,"paddingX":6,"paddingY":6,"gridL":[[0,1,1,0,1,1,0,0,0,1,0,1,1,0,0,0,1,0,0,1],[1,1,0,0,1,1,1,1,1,1,0,1,0,0,0,0,1,0,1,1],[0,0,0,0,1,1,1,1,1,1,1,0,0,1,0,1,0,1,1,0],[1,1,1,1,1,0,0,1,0,1,1,0,1,1,0,1,1,1,1,1],[1,0,1,0,1,1,1,1,0,1,0,0,1,0,1,1,1,1,1,1],[1,0,0,0,0,0,1,0,1,0,0,0,0,1,0,0,1,1,0,0],[1,0,0,0,1,0,0,0,0,1,0,0,1,1,1,0,1,1,0,0],[0,1,0,1,0,1,1,0,1,0,1,0,1,0,1,0,1,1,0,0],[1,0,1,1,1,0,1,1,0,1,0,1,1,1,1,0,1,0,1,1],[0,1,1,1,0,1,0,0,0,1,1,1,1,0,1,1,1,0,1,0],[1,1,1,1,1,1,1,1,1,1,1,1,0,1,0,0,1,1,0,0],[0,1,0,0,1,0,0,1,1,1,1,1,1,1,0,1,1,1,1,0],[1,1,0,1,1,0,0,0,1,1,1,1,0,0,1,0,0,1,1,0],[0,0,1,1,0,1,1,1,1,1,1,0,1,1,1,0,1,0,0,0],[0,1,0,1,0,0,0,1,0,1,1,1,1,0,1,1,0,1,1,1],[1,1,0,1,1,0,1,1,0,0,1,0,1,1,0,1,1,1,1,0],[0,1,1,0,1,0,0,1,1,1,1,1,0,1,0,1,0,1,0,0],[0,1,1,1,1,1,0,0,1,0,0,0,1,1,1,0,1,0,0,0],[1,1,0,0,0,0,1,0,0,0,1,0,1,0,1,1,1,1,0,1],[1,0,0,1,0,1,1,0,0,1,1,1,1,0,1,1,1,1,0,0]],"gridR":[[0,0,0,0,1,0,0,0,1,1,0,0,1,0,0,0,0,1,0,1],[1,1,0,1,1,1,0,1,0,0,1,0,1,0,1,0,0,0,1,1],[1,1,1,0,0,0,1,1,1,0,1,0,1,0,1,0,0,0,0,1],[1,0,0,1,1,1,0,1,0,0,1,1,0,0,0,0,1,1,1,1],[1,1,0,1,1,1,0,0,1,1,1,0,1,1,0,0,0,0,0,0],[0,0,1,0,0,0,0,1,0,1,0,1,0,0,1,1,1,1,0,0],[0,1,0,0,0,1,0,0,0,1,1,0,1,1,0,1,0,0,1,1],[1,0,0,0,1,0,0,0,0,0,0,0,0,1,0,1,1,0,1,0],[1,1,1,0,0,0,1,0,1,0,1,1,1,0,1,0,0,0,1,1],[0,0,0,0,1,1,1,1,0,0,0,0,0,1,0,1,1,1,0,0],[1,0,0,1,1,1,1,0,0,1,0,0,0,0,0,0,1,1,0,0],[1,0,0,1,0,0,1,1,1,1,1,0,1,1,1,1,0,0,1,1],[0,0,1,0,1,0,1,0,0,1,0,0,0,1,0,1,0,0,0,0],[1,1,0,1,1,0,0,0,0,1,0,0,1,0,0,1,1,0,0,0],[1,0,0,0,1,0,0,0,1,0,1,0,0,0,0,1,1,1,0,0],[0,1,1,1,0,1,0,0,0,1,0,1,1,0,1,0,1,1,0,0],[0,1,1,1,0,0,0,1,0,0,0,0,0,0,0,0,0,1,1,0],[0,1,0,0,0,1,0,0,0,1,0,0,0,1,1,0,1,0,0,0],[0,0,0,1,0,1,0,0,0,1,1,0,0,1,0,0,1,0,0,0],[0,0,1,1,0,1,1,0,1,1,0,1,0,0,0,1,1,1,0,0]],"displayWidth":172,"displayHeight":172,"spacing":100,"style":{"gridBorderColor":"#ffffff","gridBorderWidth":"3","dotColor":"#ffffff","dotLineWidth":"1"}},"pluginResponse":[{"startTime":11454.49999999255,"rt":3550.0000002793968,"response":[{"id":0,"name":"Left","answer":100,"prompt":"Left","lastChangedTime":14355.50000006333},{"id":1,"name":"Right","answer":"50","prompt":"Right","lastChangedTime":null}],"trial_type":"canvas-sliders-response","trial_index":1,"time_elapsed":14857,"internal_node_id":"0.0-1.0"}]},{"type":1,"typeName":"force","block":1,"advisorId":0,"choice":[],"answer":[0,null],"confidence":[99,null],"whichSide":0,"practice":true,"feedback":true,"warnings":[],"stimulusDrawTime":[17058.50000027567],"stimulusOffTime":[null],"fixationDrawTime":[16557.50000011176],"id":2,"dotDifference":30,"grid":{"dotCountL":230,"dotCountR":170,"gridWidth":20,"gridHeight":20,"dotWidth":2,"dotHeight":2,"paddingX":6,"paddingY":6,"gridL":[[1,1,0,0,1,1,1,0,0,0,1,0,1,0,1,1,1,1,1,0],[0,1,1,1,0,1,1,1,1,0,1,0,1,0,1,0,1,0,1,0],[1,0,0,1,0,0,1,1,0,1,0,1,1,1,0,1,1,0,1,0],[1,1,1,1,1,0,0,1,1,1,1,0,1,0,0,1,0,0,0,1],[0,1,1,1,0,1,1,1,1,1,1,0,1,1,0,1,0,0,1,1],[1,0,1,0,1,0,1,1,0,0,1,1,0,1,1,1,1,1,1,1],[0,1,0,0,0,1,1,1,0,0,1,1,1,0,0,1,1,0,1,1],[1,1,0,1,0,0,1,0,1,1,1,0,1,0,1,0,1,0,1,1],[0,1,1,1,1,1,0,1,0,0,1,1,1,1,1,1,0,0,0,1],[0,1,0,0,0,0,0,0,0,1,1,1,1,0,0,0,0,1,1,1],[0,0,1,1,1,1,1,0,1,0,1,0,0,1,0,0,1,1,1,0],[1,1,0,1,1,0,1,0,1,1,0,0,1,0,1,0,1,0,0,1],[0,1,0,1,1,1,1,1,1,0,0,1,0,1,1,1,0,0,0,1],[1,1,1,1,0,0,0,1,0,0,0,0,1,0,0,1,0,1,0,0],[1,0,1,0,1,1,1,1,0,0,0,1,0,0,0,1,1,1,1,1],[1,0,0,0,0,1,0,1,0,1,0,1,1,1,0,0,1,1,1,1],[1,1,0,1,0,1,0,1,1,1,1,1,0,1,1,0,0,0,1,1],[1,0,1,0,0,0,0,1,1,1,1,1,1,0,1,0,0,1,0,1],[0,1,0,1,0,0,1,1,1,1,1,0,1,0,0,1,1,1,1,0],[0,0,1,0,0,0,1,1,0,1,1,0,1,1,0,0,1,0,1,1]],"gridR":[[0,0,0,0,1,0,1,1,0,0,1,0,1,0,0,0,0,0,0,0],[0,1,0,1,1,0,0,0,1,1,1,1,0,0,0,0,0,0,0,1],[0,0,1,0,0,1,1,0,1,1,0,0,0,0,0,0,0,1,1,0],[1,0,0,1,0,0,0,0,0,1,0,1,1,1,1,1,1,0,1,0],[1,0,1,0,1,0,0,1,0,0,0,1,0,0,0,0,1,0,0,1],[0,0,1,1,1,1,1,0,1,1,0,0,1,0,0,1,1,1,1,0],[1,1,1,1,1,1,0,1,1,1,1,1,0,1,1,0,0,0,0,1],[1,1,0,0,0,0,1,1,1,0,1,0,0,1,1,0,0,0,0,0],[0,1,0,0,0,0,1,0,0,0,0,1,0,0,0,1,0,0,0,0],[0,1,0,1,0,1,1,1,1,0,1,0,0,0,1,0,1,0,1,0],[1,0,0,1,0,1,0,1,0,0,0,0,0,1,0,1,0,0,0,0],[0,1,1,1,1,1,0,0,0,0,1,0,0,1,0,0,1,1,0,0],[0,1,1,1,1,0,1,1,1,1,1,0,0,1,0,0,0,0,0,0],[0,0,0,1,1,1,1,0,1,0,0,1,1,0,1,0,1,0,0,0],[0,1,0,1,0,0,0,0,0,0,0,1,1,0,1,0,0,1,0,0],[0,0,0,1,0,0,0,0,1,1,1,1,1,1,1,0,1,0,0,1],[0,0,1,0,1,1,0,1,0,1,0,0,0,0,0,1,0,0,1,1],[0,1,0,1,1,0,1,0,0,0,0,0,0,1,0,1,0,0,1,1],[0,0,1,0,1,1,0,0,0,0,0,1,1,1,1,0,1,1,0,1],[0,1,0,0,1,1,1,0,1,0,1,1,0,0,1,0,0,0,0,1]],"displayWidth":172,"displayHeight":172,"spacing":100,"style":{"gridBorderColor":"#ffffff","gridBorderWidth":"3","dotColor":"#ffffff","dotLineWidth":"1"}},"pluginResponse":[{"startTime":16357.499999925494,"rt":3215.0000003166497,"response":[{"id":0,"name":"Left","answer":99,"prompt":"Left","lastChangedTime":19023.50000012666},{"id":1,"name":"Right","answer":"50","prompt":"Right","lastChangedTime":null}],"trial_type":"canvas-sliders-response","trial_index":3,"time_elapsed":19425,"internal_node_id":"0.0-3.0"}]},{"type":1,"typeName":"force","block":1,"advisorId":1,"choice":[],"answer":[1,1],"confidence":[100,100],"whichSide":1,"practice":true,"feedback":true,"warnings":["getConfidenceCategory: too few trials available to estimate confidence"],"stimulusDrawTime":[21403.5000000149],"stimulusOffTime":[null,null],"fixationDrawTime":[20904.500000178814],"id":3,"dotDifference":30,"grid":{"dotCountL":170,"dotCountR":230,"gridWidth":20,"gridHeight":20,"dotWidth":2,"dotHeight":2,"paddingX":6,"paddingY":6,"gridL":[[0,0,0,0,0,1,1,0,1,1,1,0,1,0,0,0,1,1,0,0],[0,1,0,0,1,0,1,0,0,1,0,1,0,1,1,0,0,0,1,1],[0,0,1,0,0,1,0,1,0,0,0,1,0,1,1,0,0,1,1,0],[0,0,1,1,0,0,1,1,0,0,0,1,0,0,1,0,0,1,1,0],[1,1,1,0,0,0,0,0,0,0,0,0,1,1,0,0,0,0,1,1],[0,0,0,1,0,0,1,0,0,1,0,1,0,1,0,1,0,0,1,1],[0,0,0,1,0,0,0,1,1,1,0,1,0,0,0,0,0,1,0,1],[0,0,0,0,1,1,0,0,0,1,0,0,1,1,1,0,0,0,1,1],[0,1,1,1,0,0,1,0,0,1,0,0,0,0,0,0,1,0,0,0],[0,0,1,1,1,0,0,0,1,0,1,1,0,0,0,1,0,1,0,0],[0,0,0,0,1,0,0,1,0,0,0,0,0,1,1,1,0,1,0,0],[1,1,0,0,1,1,0,1,0,0,0,0,0,0,0,0,1,1,1,0],[0,1,0,1,1,0,1,0,0,0,0,0,1,0,1,0,1,1,1,1],[1,1,0,1,1,0,1,0,0,1,1,0,0,0,1,0,1,1,0,1],[1,1,0,1,1,0,0,0,0,1,0,1,0,1,0,1,0,1,1,1],[1,0,1,1,0,1,0,0,0,1,1,1,1,1,0,1,1,1,1,1],[0,0,1,1,1,0,0,0,0,1,0,0,0,0,0,1,1,1,0,1],[0,0,0,0,1,1,0,0,0,0,1,0,1,1,0,0,0,1,0,1],[0,0,0,1,0,0,1,1,0,0,1,0,0,0,0,0,1,0,1,0],[1,0,0,1,1,1,1,0,1,1,0,1,0,1,0,1,0,1,0,1]],"gridR":[[0,1,1,0,0,1,1,1,1,0,1,1,0,1,1,1,0,0,0,0],[1,0,1,0,1,1,0,0,1,1,1,0,1,0,1,1,0,1,0,0],[1,0,1,1,0,1,0,1,1,0,1,0,0,0,0,1,1,0,1,1],[1,1,1,1,0,1,0,0,0,0,1,0,1,1,1,1,0,1,0,1],[1,0,0,1,0,1,1,1,0,1,0,1,0,0,1,1,1,0,1,0],[1,1,1,0,1,1,1,1,0,1,1,1,1,0,0,1,0,1,0,1],[0,1,0,0,0,1,0,1,1,0,0,1,1,1,0,1,0,1,0,1],[1,1,1,1,1,1,1,1,1,0,0,1,1,0,1,1,0,1,1,1],[0,0,1,1,1,0,1,1,1,0,1,1,0,1,0,0,1,0,0,1],[0,0,0,1,1,1,1,1,1,0,0,1,1,0,1,0,1,1,1,0],[0,0,0,0,1,1,1,0,0,1,0,0,1,0,0,1,0,0,0,0],[1,1,1,0,0,0,1,0,1,0,1,1,1,1,1,0,1,1,1,1],[1,1,1,0,0,1,1,1,0,0,0,1,0,0,1,0,0,1,1,1],[1,0,1,0,0,1,1,0,1,1,1,1,1,0,1,0,1,1,1,1],[1,0,1,0,1,0,1,0,1,1,1,0,0,0,1,0,1,0,0,1],[0,1,0,0,1,1,1,1,1,1,0,0,0,1,1,0,0,0,1,1],[1,0,0,1,1,0,1,0,0,1,0,1,1,1,1,1,0,0,0,1],[1,1,0,1,0,0,0,1,0,0,1,0,0,1,1,0,0,1,0,0],[0,1,0,1,0,1,1,1,1,0,1,1,1,1,0,1,0,0,1,1],[1,1,1,1,1,1,1,0,0,0,0,1,1,1,0,0,0,1,1,1]],"displayWidth":172,"displayHeight":172,"spacing":100,"style":{"gridBorderColor":"#ffffff","gridBorderWidth":"3","dotColor":"#ffffff","dotLineWidth":"1"}},"pluginResponse":[{"startTime":20703.500000294298,"rt":3041.999999899417,"response":[{"id":0,"name":"Left","answer":50,"prompt":"Left","lastChangedTime":null},{"id":1,"name":"Right","answer":"100","prompt":"Right","lastChangedTime":23024.500000290573}],"trial_type":"canvas-sliders-response","trial_index":5,"time_elapsed":23599,"internal_node_id":"0.0-5.0-0.0"},{"choiceTime":0,"choice":1,"totalTime":2005.0000003539026,"image":"http://localhost:8080/ExploringSocialMetacognition/assets/image/advisor2.png","adviceTime":2005.0000003539026,"trial_type":"jspsych-jas-present-advice-choice","trial_index":6,"time_elapsed":25806,"internal_node_id":"0.0-5.0-1.0"},{"startTime":25955.500000156462,"rt":2179.0000000037253,"response":[{"id":0,"name":"Left","answer":50,"prompt":"Left","lastChangedTime":null},{"id":1,"name":"Right","answer":"100","prompt":"Right","lastChangedTime":27619.500000029802}],"trial_type":"canvas-sliders-response","trial_index":7,"time_elapsed":27987,"internal_node_id":"0.0-5.0-2.0"}],"confidenceCategory":1,"advisorAgrees":true,"advice":{"filePath":"assets/audio/voices/1/think_right.wav","string":"I think it was on the RIGHT","loaded":true,"loading":true,"data":null,"buffer":{},"side":1,"confidence":0}},{"type":1,"typeName":"force","block":1,"advisorId":1,"choice":[],"answer":[0,0],"confidence":[100,100],"whichSide":0,"practice":true,"feedback":true,"warnings":[],"stimulusDrawTime":[29789.499999955297],"stimulusOffTime":[901.0000000707805,null],"fixationDrawTime":[29290.50000011921],"id":4,"dotDifference":27,"grid":{"dotCountL":227,"dotCountR":173,"gridWidth":20,"gridHeight":20,"dotWidth":2,"dotHeight":2,"paddingX":6,"paddingY":6,"gridL":[[1,1,0,1,1,1,0,1,1,1,0,1,1,1,0,1,1,0,1,1],[0,1,1,0,1,0,0,1,0,1,0,1,0,1,1,1,0,0,0,1],[0,0,1,1,1,0,1,1,0,0,1,0,0,1,0,1,1,0,0,0],[1,1,1,0,0,0,0,1,0,0,1,1,0,1,0,0,0,0,0,1],[1,1,1,0,1,1,1,0,0,1,0,1,1,1,1,1,1,1,0,0],[0,1,1,0,0,1,1,1,0,0,1,0,1,0,0,0,1,0,0,0],[0,1,1,1,0,1,1,0,1,0,0,0,0,0,1,0,1,1,1,1],[1,1,1,0,0,1,0,0,0,0,1,1,0,0,0,1,1,1,1,1],[0,0,1,1,0,1,0,0,1,1,1,1,1,0,0,0,1,1,1,1],[1,0,0,0,1,0,0,1,1,0,0,1,1,1,1,0,1,0,0,1],[0,0,1,1,1,0,1,1,1,1,1,0,0,1,0,0,0,0,0,0],[1,1,1,1,1,1,1,1,0,1,0,0,0,1,0,1,1,1,0,0],[1,0,1,0,1,1,0,1,1,1,0,1,1,1,1,1,0,1,1,1],[1,1,0,0,1,1,1,0,1,1,1,1,0,1,1,0,0,1,1,1],[1,1,1,1,1,1,1,1,0,0,0,0,1,1,0,1,0,0,1,0],[1,0,0,1,0,0,1,0,1,0,1,0,1,0,1,0,0,1,1,1],[1,0,0,1,1,0,1,1,0,0,1,1,1,0,1,1,1,0,1,0],[0,0,0,0,1,0,1,1,0,1,0,0,1,0,0,1,0,1,0,0],[1,0,1,1,0,1,1,1,1,0,1,0,1,0,1,0,1,1,0,1],[1,0,0,1,1,1,1,0,1,1,1,0,0,1,0,1,1,1,1,1]],"gridR":[[1,0,0,1,0,0,1,1,0,0,0,1,0,0,0,0,1,1,0,0],[0,0,0,0,1,1,1,0,0,1,1,0,0,1,1,0,0,1,1,0],[0,1,1,0,0,0,1,1,0,0,0,1,0,1,0,0,0,0,1,0],[1,1,0,1,1,1,0,1,1,1,1,1,1,0,1,1,0,0,0,1],[1,1,0,1,0,1,0,1,1,1,1,0,1,0,1,1,1,0,0,1],[0,0,1,0,1,1,0,1,0,0,0,1,0,1,0,1,1,0,0,0],[0,1,0,1,1,0,0,0,0,0,1,0,0,0,1,0,1,0,0,0],[0,0,1,1,1,0,0,0,1,0,1,0,0,0,0,0,1,0,0,1],[1,1,0,0,1,0,0,1,1,1,0,0,0,1,1,0,0,0,1,1],[0,1,0,0,1,1,1,0,0,1,0,1,0,1,0,1,1,1,1,1],[0,0,0,1,1,1,0,1,0,1,1,0,1,1,0,1,0,1,0,1],[0,1,0,0,0,0,1,1,1,1,0,1,1,0,0,1,1,0,0,0],[0,0,1,0,0,0,0,1,0,0,0,0,1,0,1,0,1,0,0,1],[1,1,0,1,0,0,0,0,0,0,1,1,1,0,0,0,1,0,0,1],[1,0,0,1,1,1,0,0,1,0,1,1,0,1,1,0,0,1,0,1],[1,1,0,1,0,0,0,0,1,1,0,0,1,1,1,0,1,0,0,1],[0,0,0,0,0,1,1,0,1,0,1,1,0,0,1,1,1,0,0,0],[0,0,0,1,1,0,0,0,0,1,0,0,0,0,0,0,0,0,0,1],[1,0,0,1,1,0,0,1,0,0,1,0,1,0,0,0,0,0,1,0],[1,1,1,1,0,0,0,0,1,1,0,0,0,0,0,0,0,0,0,0]],"displayWidth":172,"displayHeight":172,"spacing":100,"style":{"gridBorderColor":"#ffffff","gridBorderWidth":"3","dotColor":"#ffffff","dotLineWidth":"1"}},"pluginResponse":[{"startTime":29089.500000234693,"rt":2512.9999998025596,"response":[{"id":0,"name":"Left","answer":100,"prompt":"Left","lastChangedTime":30895.500000100583},{"id":1,"name":"Right","answer":"50","prompt":"Right","lastChangedTime":null}],"stimulusOffTime":901.0000000707805,"trial_type":"canvas-sliders-response","trial_index":9,"time_elapsed":31456,"internal_node_id":"0.0-7.0-0.0"},{"choiceTime":0,"choice":1,"totalTime":2001.9999998621643,"image":"http://localhost:8080/ExploringSocialMetacognition/assets/image/advisor2.png","adviceTime":2001.9999998621643,"trial_type":"jspsych-jas-present-advice-choice","trial_index":10,"time_elapsed":33458,"internal_node_id":"0.0-7.0-1.0"},{"startTime":33606.50000022724,"rt":1953.999999910593,"response":[{"id":0,"name":"Left","answer":100,"prompt":"Left","lastChangedTime":35011.50000002235},{"id":1,"name":"Right","answer":"50","prompt":"Right","lastChangedTime":null}],"trial_type":"canvas-sliders-response","trial_index":11,"time_elapsed":35415,"internal_node_id":"0.0-7.0-2.0"}],"confidenceCategory":2,"advisorAgrees":true,"advice":{"filePath":"assets/audio/voices/1/think_left.wav","string":"I think it was on the LEFT","loaded":true,"loading":true,"data":null,"buffer":{},"side":0,"confidence":0}},{"type":1,"typeName":"force","block":1,"advisorId":1,"choice":[],"answer":[1,1],"confidence":[98,100],"whichSide":1,"practice":true,"feedback":true,"warnings":[],"stimulusDrawTime":[36464.50000023469],"stimulusOffTime":[901.0000000707805,null],"fixationDrawTime":[35964.50000023469],"id":5,"dotDifference":24,"grid":{"dotCountL":176,"dotCountR":224,"gridWidth":20,"gridHeight":20,"dotWidth":2,"dotHeight":2,"paddingX":6,"paddingY":6,"gridL":[[0,1,0,0,0,0,0,1,1,0,0,0,1,0,0,0,1,0,1,1],[1,0,1,0,0,0,0,0,0,1,0,0,1,0,1,1,0,0,0,0],[0,1,0,1,0,0,1,0,1,0,1,0,0,0,0,0,0,1,1,0],[1,1,0,1,0,0,1,0,0,0,0,0,0,0,1,1,1,1,0,1],[1,1,1,0,1,1,0,0,1,1,0,1,1,1,0,0,1,0,1,0],[0,1,0,0,0,1,1,0,0,0,1,1,1,1,0,0,1,0,0,0],[0,0,0,0,1,0,0,0,1,0,1,0,1,1,0,1,1,1,1,1],[1,0,1,1,1,0,1,0,0,0,0,1,0,0,1,0,0,1,1,1],[1,0,0,1,0,1,1,1,1,1,0,1,0,0,1,1,1,0,1,0],[1,1,0,1,0,0,0,0,1,1,0,0,0,0,1,0,0,0,0,1],[0,0,0,1,0,1,0,0,0,0,1,1,1,0,1,0,0,1,1,1],[0,1,0,0,0,1,0,0,1,1,1,0,0,0,1,1,1,1,1,0],[1,0,1,0,0,0,0,0,1,0,0,0,1,0,1,0,0,0,1,0],[0,1,1,1,1,1,0,0,0,1,0,0,0,1,0,0,0,1,1,1],[0,1,1,1,0,1,1,0,0,1,0,0,0,0,0,0,0,0,0,1],[0,1,1,0,1,0,0,0,1,0,0,0,1,0,1,0,1,0,0,1],[0,0,1,1,1,1,0,1,1,0,0,0,0,0,0,0,1,1,1,1],[1,1,0,1,1,0,0,0,1,0,1,0,0,1,1,0,1,1,1,1],[1,1,0,0,0,0,0,0,1,0,0,1,1,0,0,0,1,0,1,1],[0,0,0,1,1,0,0,0,0,0,1,0,0,0,1,0,1,1,1,1]],"gridR":[[0,1,1,1,1,1,1,0,0,1,1,0,1,1,1,1,0,0,1,1],[1,1,0,1,0,1,1,1,0,0,1,1,1,0,1,0,1,1,0,1],[0,1,1,1,0,0,0,1,1,1,1,1,1,1,1,0,0,1,0,1],[1,0,1,1,0,1,1,1,0,1,1,1,0,0,1,1,0,1,0,0],[1,1,1,1,0,0,0,1,0,1,1,1,1,1,1,1,1,1,1,1],[0,1,0,1,1,1,1,0,1,0,0,1,0,0,1,1,1,0,1,1],[0,1,0,1,0,1,1,1,1,1,0,1,0,0,0,0,1,1,1,1],[0,0,1,0,1,1,1,0,1,0,1,1,1,0,0,0,1,0,0,1],[1,1,1,0,1,1,0,1,1,0,0,0,0,0,0,0,1,0,1,0],[1,1,1,0,1,1,1,0,0,1,1,0,1,1,1,1,1,1,0,1],[0,0,0,1,1,1,0,0,0,0,0,0,1,0,1,1,0,0,1,1],[1,1,0,0,0,0,0,0,0,0,1,0,0,1,1,0,1,1,1,0],[0,0,1,1,1,1,1,0,0,1,1,1,0,1,1,0,0,1,1,1],[1,0,1,0,1,1,1,1,1,0,1,0,0,1,0,1,1,1,1,1],[1,0,0,1,0,1,1,1,0,1,0,0,0,1,1,1,1,0,1,0],[0,1,1,1,0,0,0,1,0,1,1,1,0,1,1,1,0,1,0,0],[0,1,0,0,0,0,0,0,0,0,0,0,1,1,0,1,0,1,0,0],[0,1,1,0,1,0,1,0,1,1,0,0,1,0,1,1,0,0,1,0],[0,0,1,1,1,0,1,0,1,0,1,0,1,1,0,0,0,0,1,1],[1,1,1,0,1,1,0,1,0,0,0,0,0,0,0,0,1,1,0,0]],"displayWidth":172,"displayHeight":172,"spacing":100,"style":{"gridBorderColor":"#ffffff","gridBorderWidth":"3","dotColor":"#ffffff","dotLineWidth":"1"}},"pluginResponse":[{"startTime":35762.500000186265,"rt":2574.0000000223517,"response":[{"id":0,"name":"Left","answer":50,"prompt":"Left","lastChangedTime":null},{"id":1,"name":"Right","answer":"98","prompt":"Right","lastChangedTime":37765.50000021234}],"stimulusOffTime":901.0000000707805,"trial_type":"canvas-sliders-response","trial_index":12,"time_elapsed":38190,"internal_node_id":"0.0-7.0-0.1"},{"choiceTime":0,"choice":1,"totalTime":2002.0000003278255,"image":"http://localhost:8080/ExploringSocialMetacognition/assets/image/advisor2.png","adviceTime":2002.0000003278255,"trial_type":"jspsych-jas-present-advice-choice","trial_index":13,"time_elapsed":40193,"internal_node_id":"0.0-7.0-1.1"},{"startTime":40340.499999932945,"rt":3813.0000000819564,"response":[{"id":0,"name":"Left","answer":50,"prompt":"Left","lastChangedTime":null},{"id":1,"name":"Right","answer":"100","prompt":"Right","lastChangedTime":43282.50000020489}],"trial_type":"canvas-sliders-response","trial_index":14,"time_elapsed":44008,"internal_node_id":"0.0-7.0-2.1"}],"confidenceCategory":0,"advisorAgrees":true,"advice":{"filePath":"assets/audio/voices/1/think_right.wav","string":"I think it was on the RIGHT","loaded":true,"loading":true,"data":null,"buffer":{},"side":1,"confidence":0}},{"block":1,"advisorId":1,"choice":[],"answer":[0,0],"confidence":[100,100],"whichSide":0,"practice":true,"feedback":true,"warnings":[],"stimulusDrawTime":[45057.50000011176],"stimulusOffTime":[902.0000002346933,null],"fixationDrawTime":[44556.499999947846],"id":6,"dotDifference":21,"grid":{"dotCountL":221,"dotCountR":179,"gridWidth":20,"gridHeight":20,"dotWidth":2,"dotHeight":2,"paddingX":6,"paddingY":6,"gridL":[[0,0,1,1,0,0,1,1,0,1,1,0,0,0,0,1,1,1,1,0],[1,0,1,1,1,1,0,0,0,1,0,1,1,1,1,0,1,1,0,1],[1,1,0,0,0,1,1,0,0,1,1,0,0,1,0,0,0,0,1,0],[1,1,1,0,1,1,0,0,1,1,1,1,1,1,1,0,1,1,1,0],[1,1,0,0,1,0,1,1,1,0,1,0,0,1,0,0,1,1,1,1],[0,1,0,1,0,0,1,1,1,0,1,0,1,0,0,0,1,1,1,0],[1,0,1,1,0,1,1,1,0,0,0,0,0,1,0,1,0,0,0,0],[1,0,1,1,0,1,1,0,1,0,1,0,0,1,0,0,1,1,0,1],[1,0,1,1,1,0,1,1,1,1,1,1,1,0,1,0,1,0,0,0],[0,0,0,0,0,1,0,1,0,1,0,0,1,0,1,0,1,0,1,1],[1,0,0,1,0,1,0,1,0,1,0,1,0,0,0,1,1,1,0,0],[1,1,1,1,0,0,1,0,1,1,1,0,1,1,0,0,1,1,1,0],[1,0,1,0,0,1,1,0,0,1,1,1,0,1,1,0,1,0,1,0],[1,1,1,0,0,0,0,1,1,1,1,0,1,0,1,1,1,1,0,0],[0,1,0,0,1,0,1,1,1,0,1,0,1,1,1,0,0,0,1,0],[1,1,1,0,1,1,1,0,0,1,0,1,1,1,1,1,1,0,1,1],[0,1,0,1,1,1,1,1,0,0,0,1,0,0,0,1,1,1,0,0],[1,1,1,0,1,1,0,1,1,1,0,0,1,1,0,1,1,0,0,1],[0,1,0,0,1,0,1,1,0,0,1,1,1,1,1,1,1,1,1,0],[1,0,0,0,0,0,1,0,0,0,1,0,1,1,1,0,0,1,0,0]],"gridR":[[0,0,1,0,1,1,1,0,1,0,1,1,1,0,1,0,0,1,0,0],[1,0,0,1,1,0,0,1,1,1,0,0,0,0,0,0,0,0,1,0],[1,0,1,0,1,1,0,0,0,0,1,0,0,0,0,1,0,1,0,0],[0,1,0,0,0,0,1,1,0,1,1,1,1,0,1,0,0,0,1,1],[0,1,0,1,1,1,0,1,0,0,0,1,0,1,0,0,1,1,1,0],[0,0,1,0,0,0,0,0,0,0,1,0,1,0,1,0,0,0,1,0],[0,0,0,1,1,1,0,0,1,1,0,1,0,1,0,0,0,0,0,0],[1,0,0,0,1,0,0,1,1,1,0,0,1,1,0,1,0,0,0,1],[1,0,0,1,1,0,1,1,0,1,0,1,1,1,0,1,1,0,1,0],[0,0,1,0,0,0,1,0,0,0,0,0,0,0,1,0,1,1,1,0],[0,0,0,1,1,0,0,0,0,1,0,1,0,1,0,0,0,0,1,0],[0,1,1,0,0,1,0,1,1,1,0,1,1,1,0,1,0,1,1,0],[0,1,1,1,1,0,0,1,1,1,0,1,0,1,1,0,0,1,0,0],[1,1,0,1,1,0,1,0,1,0,1,0,1,1,0,0,1,1,1,0],[1,0,0,0,0,0,1,0,0,1,0,0,0,0,0,0,0,1,1,1],[1,0,1,1,1,0,0,0,1,1,0,1,1,1,0,0,0,1,0,0],[0,1,0,1,1,1,0,0,0,1,1,0,0,0,1,1,0,0,0,1],[1,0,1,0,1,1,0,0,1,0,0,1,1,0,1,1,0,1,0,0],[1,1,1,1,1,0,0,1,1,0,0,0,0,0,1,1,0,1,0,1],[0,1,1,0,1,1,0,1,0,0,1,0,1,1,0,0,0,0,0,1]],"displayWidth":172,"displayHeight":172,"spacing":100,"style":{"gridBorderColor":"#ffffff","gridBorderWidth":"3","dotColor":"#ffffff","dotLineWidth":"1"}},"pluginResponse":[{"startTime":44355.50000006333,"rt":2856.0000001452863,"response":[{"id":0,"name":"Left","answer":100,"prompt":"Left","lastChangedTime":46477.50000003725},{"id":1,"name":"Right","answer":"50","prompt":"Right","lastChangedTime":null}],"stimulusOffTime":902.0000002346933,"trial_type":"canvas-sliders-response","trial_index":15,"time_elapsed":47066,"internal_node_id":"0.0-7.0-0.2"},{"choiceTime":0,"choice":1,"totalTime":2003.000000026077,"image":"http://localhost:8080/ExploringSocialMetacognition/assets/image/advisor2.png","adviceTime":2003.000000026077,"trial_type":"jspsych-jas-present-advice-choice","trial_index":16,"time_elapsed":49068,"internal_node_id":"0.0-7.0-1.2"},{"startTime":49216.50000009686,"rt":6074.000000022352,"response":[{"id":0,"name":"Left","answer":100,"prompt":"Left","lastChangedTime":54156.50000004098},{"id":1,"name":"Right","answer":"50","prompt":"Right","lastChangedTime":null}],"trial_type":"canvas-sliders-response","trial_index":17,"time_elapsed":55144,"internal_node_id":"0.0-7.0-2.2"}],"confidenceCategory":2,"advisorAgrees":true,"advice":{"filePath":"assets/audio/voices/1/think_left.wav","string":"I think it was on the LEFT","loaded":true,"loading":true,"data":null,"buffer":{},"side":0,"confidence":0}},{"block":1,"advisorId":1,"choice":[],"answer":[0,0],"confidence":[100,100],"whichSide":0,"practice":true,"feedback":true,"warnings":[],"stimulusDrawTime":[56193.500000052154],"stimulusOffTime":[901.0000000707805,null],"fixationDrawTime":[55693.500000052154],"id":7,"dotDifference":18,"grid":{"dotCountL":218,"dotCountR":182,"gridWidth":20,"gridHeight":20,"dotWidth":2,"dotHeight":2,"paddingX":6,"paddingY":6,"gridL":[[1,1,0,1,1,1,0,1,0,0,0,1,0,0,1,1,1,1,1,1],[1,0,1,0,1,1,1,0,1,0,0,0,1,1,0,0,1,0,1,1],[1,0,0,1,0,1,1,1,1,0,1,0,1,1,0,0,1,0,0,1],[0,1,0,0,1,1,0,0,0,1,0,1,0,1,1,1,1,1,1,1],[1,1,0,0,1,1,1,0,0,1,0,0,0,1,1,0,0,0,1,0],[1,0,0,1,1,0,1,1,0,0,0,1,1,0,1,0,0,1,1,0],[1,0,1,0,0,0,1,0,1,1,0,1,0,1,0,0,0,0,1,1],[0,1,0,1,0,1,0,0,0,0,0,1,0,1,0,1,1,0,1,1],[0,0,1,1,0,0,1,1,1,1,1,0,0,0,1,1,1,1,1,1],[0,1,0,0,1,1,0,0,0,1,1,1,0,0,1,1,0,1,0,0],[0,1,0,0,1,1,0,0,1,0,0,0,0,0,1,0,1,1,0,0],[1,0,0,1,0,1,1,0,0,1,0,1,1,1,1,1,1,1,0,1],[1,1,1,0,0,1,1,0,0,0,0,0,1,1,0,0,1,1,1,0],[0,1,1,0,1,1,1,1,0,1,1,0,0,0,0,0,0,0,1,0],[0,1,1,0,0,0,1,1,1,1,1,1,1,0,1,1,1,0,0,0],[1,0,1,1,0,1,1,1,1,1,1,1,0,1,1,0,1,0,0,0],[1,1,1,1,0,1,1,1,1,0,1,1,1,0,0,1,0,0,1,1],[0,0,1,0,1,1,1,1,1,0,1,1,1,1,0,1,1,1,0,1],[0,0,1,1,1,1,0,1,1,1,1,0,1,0,1,0,0,0,1,0],[0,0,1,1,1,0,0,1,0,0,0,0,0,1,1,1,1,0,1,0]],"gridR":[[0,1,0,0,0,1,0,0,0,1,0,0,0,1,0,0,0,1,0,1],[1,1,0,0,0,0,0,1,1,0,1,0,0,0,0,0,0,1,0,1],[1,1,0,1,0,0,1,0,0,0,1,1,1,1,1,0,0,1,0,0],[0,1,0,0,0,0,1,0,1,1,1,0,0,1,1,0,0,1,0,1],[0,0,1,1,0,0,0,0,1,0,0,1,1,0,0,1,0,1,0,1],[0,1,0,0,1,0,1,1,1,0,1,1,0,0,1,0,1,0,1,0],[1,1,0,0,1,0,0,1,0,1,1,1,0,1,1,1,0,1,1,1],[1,1,0,0,1,1,1,1,0,0,0,0,1,1,1,1,0,1,0,0],[0,0,0,1,0,0,0,0,1,1,0,0,0,0,1,0,1,1,0,1],[0,1,1,1,0,1,0,0,1,1,0,1,0,0,0,0,1,1,0,0],[1,1,1,1,1,1,1,0,1,0,0,1,1,1,0,0,0,0,0,0],[0,1,0,1,0,1,1,1,1,1,0,0,1,0,1,1,0,0,0,0],[1,1,0,0,0,1,1,0,0,1,1,0,0,1,1,0,1,1,1,1],[1,1,0,0,0,0,0,1,1,0,0,1,1,0,0,1,0,0,0,0],[0,0,0,1,1,1,0,0,0,1,0,0,0,0,0,0,0,0,1,1],[0,0,1,1,1,1,1,1,1,0,0,0,0,1,0,0,1,0,1,1],[0,0,1,1,1,0,0,1,1,1,1,1,0,0,1,0,0,0,1,0],[1,1,0,0,1,0,0,1,1,0,0,1,0,0,1,1,0,0,1,1],[0,0,1,0,1,0,0,1,1,0,1,1,1,0,0,1,0,0,1,1],[1,0,1,0,0,1,0,0,0,0,0,0,1,0,1,0,0,0,0,0]],"displayWidth":172,"displayHeight":172,"spacing":100,"style":{"gridBorderColor":"#ffffff","gridBorderWidth":"3","dotColor":"#ffffff","dotLineWidth":"1"}},"pluginResponse":[{"startTime":55492.50000016764,"rt":3081.99999993667,"response":[{"id":0,"name":"Left","answer":100,"prompt":"Left","lastChangedTime":57954.49999999255},{"id":1,"name":"Right","answer":"50","prompt":"Right","lastChangedTime":null}],"stimulusOffTime":901.0000000707805,"trial_type":"canvas-sliders-response","trial_index":18,"time_elapsed":58428,"internal_node_id":"0.0-7.0-0.3"},{"choiceTime":0,"choice":1,"totalTime":2002.0000003278255,"image":"http://localhost:8080/ExploringSocialMetacognition/assets/image/advisor2.png","adviceTime":2002.0000003278255,"trial_type":"jspsych-jas-present-advice-choice","trial_index":19,"time_elapsed":60432,"internal_node_id":"0.0-7.0-1.3"},{"startTime":60579.49999999255,"rt":2620.0000001117587,"response":[{"id":0,"name":"Left","answer":100,"prompt":"Left","lastChangedTime":62712.49999990687},{"id":1,"name":"Right","answer":"50","prompt":"Right","lastChangedTime":null}],"trial_type":"canvas-sliders-response","trial_index":20,"time_elapsed":63053,"internal_node_id":"0.0-7.0-2.3"}],"confidenceCategory":0,"advisorAgrees":true,"advice":{"filePath":"assets/audio/voices/1/left_think.wav","string":"It was on the LEFT, I think","loaded":true,"loading":true,"data":null,"buffer":{},"side":0,"confidence":0}},{"type":2,"typeName":"choice","block":2,"advisorId":1,"choice":[2,1],"answer":[1,1],"confidence":[100,99],"whichSide":1,"practice":false,"feedback":false,"warnings":[],"stimulusDrawTime":[83211.50000020862],"stimulusOffTime":[899.9999999068677,null],"fixationDrawTime":[82711.50000020862],"id":8,"dotDifference":15,"grid":{"dotCountL":185,"dotCountR":215,"gridWidth":20,"gridHeight":20,"dotWidth":2,"dotHeight":2,"paddingX":6,"paddingY":6,"gridL":[[0,1,1,0,0,1,0,0,0,0,1,1,0,0,0,0,0,1,1,0],[0,0,1,1,1,1,0,0,1,0,1,1,0,1,1,0,1,0,0,1],[1,1,0,0,0,0,0,1,0,1,0,0,1,1,1,0,0,1,0,0],[0,1,1,0,1,1,0,0,1,0,1,1,1,1,1,0,0,1,1,0],[1,1,1,0,1,1,1,0,1,1,0,0,0,0,1,0,1,1,0,1],[0,1,1,0,0,1,0,0,0,0,0,0,0,0,0,1,0,1,0,0],[1,1,1,0,0,0,1,0,0,1,1,1,1,0,0,1,1,1,0,0],[0,1,1,1,1,0,0,0,0,0,1,1,0,1,0,0,0,0,0,0],[0,1,0,0,0,1,1,1,0,0,0,1,1,0,0,1,0,1,0,0],[0,0,1,1,0,1,0,1,0,0,1,1,1,0,0,1,0,0,0,1],[0,0,1,0,1,0,0,1,0,1,0,1,1,1,1,1,0,0,1,1],[0,0,0,1,1,0,0,1,0,0,1,1,0,0,0,0,0,0,0,1],[1,1,1,1,1,1,0,0,0,1,0,0,0,0,1,1,1,1,0,1],[0,0,0,1,1,1,1,0,1,1,0,0,1,0,0,1,1,0,0,0],[0,1,1,1,0,1,1,1,0,1,0,0,1,1,1,0,0,0,0,1],[1,1,0,0,0,0,0,0,1,0,0,0,0,0,0,1,1,0,1,1],[1,1,1,1,0,0,0,0,0,0,1,0,1,1,0,1,0,1,1,1],[0,0,0,0,1,0,1,0,1,0,1,0,0,0,0,1,0,0,1,0],[1,1,1,0,1,1,0,1,1,1,1,0,1,0,0,0,1,0,1,1],[0,1,0,1,0,0,1,0,1,0,1,0,0,1,1,0,0,1,0,1]],"gridR":[[0,0,1,0,0,0,1,1,0,1,1,0,0,1,1,1,0,1,0,0],[0,0,0,0,1,1,1,0,0,0,0,1,1,1,1,1,0,1,0,1],[0,0,0,0,0,0,0,1,1,0,0,1,0,1,1,1,1,0,0,0],[1,0,1,1,0,1,1,0,1,1,1,0,0,1,1,1,0,0,1,0],[0,1,1,0,1,1,0,0,1,0,1,0,0,0,1,0,1,1,1,1],[1,0,0,1,0,0,0,1,0,1,1,1,0,1,0,0,1,1,0,0],[1,1,1,0,1,0,1,1,0,0,0,0,1,1,1,0,1,1,0,1],[1,0,1,0,1,1,0,0,1,1,0,0,1,0,1,0,1,0,1,1],[1,1,1,1,0,1,0,1,0,1,1,0,1,1,1,1,1,0,1,1],[0,1,1,0,0,1,0,0,1,1,1,0,1,1,1,0,1,1,0,0],[0,0,0,1,1,1,0,1,1,0,1,0,0,0,0,1,0,1,1,1],[1,0,0,0,1,0,0,0,1,1,1,1,0,0,1,1,0,0,1,0],[1,0,1,0,1,1,1,1,0,1,1,1,1,1,0,0,1,1,1,1],[0,1,0,1,1,1,0,0,0,1,0,0,1,0,0,0,1,0,1,1],[1,0,0,1,1,0,1,1,0,0,0,1,0,1,1,1,1,0,0,0],[0,1,1,1,0,1,0,1,1,0,1,1,0,0,1,1,0,0,0,0],[1,1,0,1,0,0,0,1,1,0,0,1,0,0,1,0,1,0,1,1],[0,0,0,1,0,0,1,0,1,0,1,1,1,1,0,1,1,1,1,1],[1,0,1,0,0,1,0,0,1,0,1,1,1,1,1,1,0,0,0,1],[1,1,1,1,1,1,0,1,1,1,0,1,0,0,1,0,0,0,0,1]],"displayWidth":172,"displayHeight":172,"spacing":100,"style":{"gridBorderColor":"#ffffff","gridBorderWidth":"3","dotColor":"#ffffff","dotLineWidth":"1"}},"pluginResponse":[{"startTime":82511.50000002235,"rt":2111.0000000335276,"response":[{"id":0,"name":"Left","answer":50,"prompt":"Left","lastChangedTime":null},{"id":1,"name":"Right","answer":"100","prompt":"Right","lastChangedTime":84202.50000013039}],"stimulusOffTime":899.9999999068677,"trial_type":"canvas-sliders-response","trial_index":26,"time_elapsed":84477,"internal_node_id":"0.0-13.0-0.0"},{"choiceTime":759.0000000782311,"choice":1,"totalTime":2762.000000104308,"image":"http://localhost:8080/ExploringSocialMetacognition/assets/image/advisor2.png","adviceTime":2003.000000026077,"trial_type":"jspsych-jas-present-advice-choice","trial_index":27,"time_elapsed":87238,"internal_node_id":"0.0-13.0-1.0"},{"startTime":87386.50000002235,"rt":1895.0000000186265,"response":[{"id":0,"name":"Left","answer":50,"prompt":"Left","lastChangedTime":null},{"id":1,"name":"Right","answer":"99","prompt":"Right","lastChangedTime":88798.50000003353}],"trial_type":"canvas-sliders-response","trial_index":28,"time_elapsed":89135,"internal_node_id":"0.0-13.0-2.0"}],"confidenceCategory":0,"advisorAgrees":true,"advice":{"filePath":"assets/audio/voices/1/right_think.wav","string":"It was on the RIGHT, I think","loaded":true,"loading":true,"data":null,"buffer":{},"side":1,"confidence":0}},{"type":1,"typeName":"force","block":2,"advisorId":2,"choice":[],"answer":[1,0],"confidence":[100,100],"whichSide":1,"practice":false,"feedback":false,"warnings":[],"stimulusDrawTime":[90183.50000027567],"stimulusOffTime":[899.9999999068677,null],"fixationDrawTime":[89683.50000027567],"id":9,"dotDifference":12,"grid":{"dotCountL":188,"dotCountR":212,"gridWidth":20,"gridHeight":20,"dotWidth":2,"dotHeight":2,"paddingX":6,"paddingY":6,"gridL":[[1,0,0,1,0,1,0,0,1,1,1,0,1,1,0,0,1,0,0,1],[1,1,1,0,0,0,0,0,0,0,1,0,0,0,0,0,0,1,0,1],[0,0,1,0,1,0,0,1,1,1,1,0,1,1,1,1,0,1,1,1],[0,0,1,1,1,0,0,0,1,0,0,1,1,1,0,0,1,0,0,0],[0,1,0,1,1,0,1,0,0,1,0,1,0,0,1,0,0,0,0,0],[0,0,1,1,0,1,1,0,1,1,1,1,0,0,0,0,0,1,0,1],[0,0,0,0,0,0,0,1,0,0,0,1,0,1,0,1,1,0,0,0],[1,0,0,0,0,0,1,1,1,0,0,1,1,0,0,0,1,0,1,1],[0,0,0,1,1,1,0,1,1,1,0,0,1,0,1,1,0,1,1,0],[0,0,0,1,1,1,0,0,0,1,0,1,0,1,0,0,1,1,1,0],[0,0,1,0,1,1,0,1,0,0,1,1,0,0,0,0,0,1,0,1],[1,1,0,0,0,1,0,0,1,1,0,1,1,1,0,1,0,0,1,0],[1,1,0,1,1,0,0,0,1,1,0,0,1,1,1,0,0,0,1,1],[0,1,1,1,0,0,0,1,0,1,0,1,1,0,0,0,1,1,1,1],[0,0,1,0,0,0,0,1,0,0,1,0,1,0,0,0,0,1,0,0],[0,1,1,1,1,0,0,1,1,1,0,1,0,1,1,0,1,0,1,1],[0,0,0,0,1,1,1,1,1,0,1,1,0,0,0,1,0,0,0,0],[1,0,0,0,1,0,1,0,1,1,0,0,1,0,1,1,1,0,0,0],[0,1,0,0,1,1,1,0,1,1,0,1,0,0,0,1,1,1,0,1],[1,1,1,1,0,0,1,1,0,1,1,1,1,1,0,1,0,0,1,1]],"gridR":[[1,0,0,0,1,1,0,0,1,0,1,1,1,0,0,0,0,0,0,0],[1,0,1,1,1,0,1,0,1,1,1,0,1,1,1,0,1,1,1,1],[0,0,1,1,1,0,1,0,0,0,1,0,1,1,0,1,0,1,1,1],[1,1,1,1,1,0,1,0,0,1,1,1,0,0,1,1,1,0,0,0],[1,0,1,1,1,1,0,0,1,1,0,0,0,1,0,1,0,0,1,1],[0,1,0,0,0,1,0,0,0,1,0,1,1,1,1,1,1,1,1,1],[1,0,0,1,1,0,0,0,1,0,1,1,1,1,0,0,0,1,1,1],[1,0,0,0,1,0,1,1,0,1,1,1,0,0,0,0,0,1,0,1],[1,0,0,1,1,1,0,1,0,0,1,0,0,0,0,1,1,0,1,0],[1,1,1,1,0,1,0,0,1,0,1,1,0,0,1,0,1,1,1,1],[0,0,1,0,0,0,0,0,0,0,0,1,0,0,1,1,0,1,1,1],[1,1,1,0,0,1,0,0,0,0,0,1,0,1,0,1,0,0,1,1],[0,1,1,0,1,0,0,0,1,1,0,0,1,0,1,1,1,0,0,1],[0,1,1,0,1,1,0,1,1,0,0,1,1,1,0,1,1,0,1,0],[0,0,1,0,0,1,1,1,0,0,1,0,0,0,1,0,0,0,0,1],[0,1,0,1,1,1,1,0,1,0,0,0,1,1,0,0,0,0,1,0],[1,0,0,1,1,1,1,1,1,0,0,0,0,0,0,1,1,0,1,1],[1,1,1,1,1,0,0,1,1,1,1,1,0,1,1,1,1,1,1,1],[1,0,1,0,0,0,1,1,0,0,0,0,1,1,1,0,0,1,1,0],[1,1,0,1,1,0,0,1,0,1,1,0,1,1,0,0,1,0,1,0]],"displayWidth":172,"displayHeight":172,"spacing":100,"style":{"gridBorderColor":"#ffffff","gridBorderWidth":"3","dotColor":"#ffffff","dotLineWidth":"1"}},"pluginResponse":[{"startTime":89483.5000000894,"rt":3251.9999998621643,"response":[{"id":0,"name":"Left","answer":50,"prompt":"Left","lastChangedTime":null},{"id":1,"name":"Right","answer":"100","prompt":"Right","lastChangedTime":92142.5000000745}],"stimulusOffTime":899.9999999068677,"trial_type":"canvas-sliders-response","trial_index":29,"time_elapsed":92588,"internal_node_id":"0.0-13.0-0.1"},{"choiceTime":0,"choice":2,"totalTime":2004.0000001899898,"image":"http://localhost:8080/ExploringSocialMetacognition/assets/image/advisor3.png","adviceTime":2004.0000001899898,"trial_type":"jspsych-jas-present-advice-choice","trial_index":30,"time_elapsed":94593,"internal_node_id":"0.0-13.0-1.1"},{"startTime":94740.50000030547,"rt":1827.9999997466803,"response":[{"id":0,"name":"Left","answer":100,"prompt":"Left","lastChangedTime":95994.5000000298},{"id":1,"name":"Right","answer":"50","prompt":"Right","lastChangedTime":null}],"trial_type":"canvas-sliders-response","trial_index":31,"time_elapsed":96422,"internal_node_id":"0.0-13.0-2.1"}],"confidenceCategory":0,"advisorAgrees":false,"advice":{"filePath":"assets/audio/voices/3/think_left.wav","string":"I think it was on the LEFT","loaded":true,"loading":true,"data":null,"buffer":{},"side":0,"confidence":0}},{"type":1,"typeName":"force","block":2,"advisorId":1,"choice":[],"answer":[0,0],"confidence":[100,100],"whichSide":1,"practice":false,"feedback":false,"warnings":[],"stimulusDrawTime":[97471.4999999851],"stimulusOffTime":[899.9999999068677,null],"fixationDrawTime":[96971.4999999851],"id":10,"dotDifference":9,"grid":{"dotCountL":191,"dotCountR":209,"gridWidth":20,"gridHeight":20,"dotWidth":2,"dotHeight":2,"paddingX":6,"paddingY":6,"gridL":[[1,1,0,0,0,1,1,0,0,1,1,0,0,0,1,0,1,0,1,0],[0,1,0,1,0,1,0,0,1,0,0,1,0,1,0,0,0,0,0,1],[1,0,0,0,0,1,1,0,0,0,1,0,1,0,0,1,0,0,1,0],[1,1,0,1,1,0,1,0,0,0,1,0,0,0,0,0,0,0,0,0],[1,1,1,1,1,1,0,1,1,1,0,1,1,0,0,0,1,0,1,0],[1,1,1,1,0,0,0,1,0,1,0,0,0,1,1,1,0,1,1,1],[1,1,0,1,0,1,1,0,1,0,0,1,1,0,0,1,0,1,0,0],[0,0,0,0,0,1,0,1,1,1,1,0,0,1,1,1,0,0,1,0],[0,0,0,1,1,1,0,1,0,0,1,0,1,0,1,1,1,0,0,0],[0,0,1,0,1,0,0,1,0,1,1,0,1,1,1,1,0,1,1,0],[1,1,0,0,0,0,1,1,0,0,1,1,1,1,0,0,0,0,0,0],[0,0,0,0,1,0,0,0,1,1,0,0,1,1,1,0,0,0,0,1],[1,0,0,0,0,1,1,0,0,0,1,1,1,1,0,1,1,1,1,1],[0,0,1,1,1,0,0,1,0,1,1,0,1,1,1,0,1,0,1,1],[0,0,1,0,1,0,1,1,1,1,1,0,1,0,0,0,0,1,1,1],[0,0,1,1,1,1,0,1,1,0,0,0,1,1,0,0,1,1,1,0],[1,0,1,0,1,0,0,0,0,1,1,0,1,0,0,1,0,0,1,0],[1,0,1,1,0,0,1,1,1,1,0,1,0,1,0,0,1,1,0,0],[0,1,0,0,1,1,0,1,0,1,0,0,0,1,0,0,1,0,0,1],[1,0,0,0,0,1,1,0,0,1,0,0,1,1,0,1,1,1,0,1]],"gridR":[[1,1,1,0,0,1,0,1,0,1,1,1,0,1,1,1,1,0,1,0],[0,1,0,1,1,0,1,0,1,1,0,0,1,0,1,0,0,1,0,1],[0,0,0,0,1,0,1,0,0,0,0,0,0,1,0,0,1,0,1,0],[0,1,1,1,0,1,1,0,1,1,0,0,0,0,0,1,0,0,0,0],[1,0,0,0,1,1,0,1,1,1,0,1,1,0,0,0,1,1,0,1],[1,0,1,0,1,0,1,1,0,0,0,0,1,0,1,1,1,1,0,0],[0,0,1,1,1,1,1,0,1,0,0,0,0,0,0,0,1,1,0,0],[1,1,0,0,0,1,0,0,1,1,1,1,1,1,1,1,1,0,1,1],[0,0,0,1,0,1,0,1,0,1,1,0,0,0,0,1,1,1,1,1],[0,0,1,0,0,1,1,1,0,0,0,0,1,1,1,1,0,0,1,1],[1,1,0,0,0,1,0,1,0,0,0,1,0,1,1,1,1,1,1,0],[0,0,1,1,0,1,0,0,0,1,0,1,0,0,1,0,0,1,1,0],[0,1,1,1,1,1,1,1,0,0,0,0,1,1,1,1,1,1,0,1],[1,1,1,0,1,0,0,0,1,1,0,1,1,1,0,0,0,1,1,0],[1,0,1,1,1,0,1,1,1,1,1,0,1,1,1,0,1,1,0,0],[1,1,0,0,0,0,1,0,0,0,0,0,1,1,0,1,0,1,0,1],[1,1,1,0,0,1,0,1,0,1,0,0,0,1,0,1,0,1,1,0],[1,1,0,0,0,1,1,0,1,1,0,0,1,1,0,1,1,0,1,0],[1,0,0,0,0,1,1,1,0,0,1,1,0,0,1,1,1,1,1,1],[1,1,0,0,1,1,1,0,1,1,1,0,1,1,0,1,0,0,0,0]],"displayWidth":172,"displayHeight":172,"spacing":100,"style":{"gridBorderColor":"#ffffff","gridBorderWidth":"3","dotColor":"#ffffff","dotLineWidth":"1"}},"pluginResponse":[{"startTime":96771.5000002645,"rt":3320.9999999962747,"response":[{"id":0,"name":"Left","answer":100,"prompt":"Left","lastChangedTime":99344.50000012293},{"id":1,"name":"Right","answer":"50","prompt":"Right","lastChangedTime":null}],"stimulusOffTime":899.9999999068677,"trial_type":"canvas-sliders-response","trial_index":32,"time_elapsed":99946,"internal_node_id":"0.0-13.0-0.2"},{"choiceTime":0,"choice":1,"totalTime":2002.0000003278255,"image":"http://localhost:8080/ExploringSocialMetacognition/assets/image/advisor2.png","adviceTime":2002.0000003278255,"trial_type":"jspsych-jas-present-advice-choice","trial_index":33,"time_elapsed":101948,"internal_node_id":"0.0-13.0-1.2"},{"startTime":102096.4999999851,"rt":2206.0000002384186,"response":[{"id":0,"name":"Left","answer":100,"prompt":"Left","lastChangedTime":103325.50000026822},{"id":1,"name":"Right","answer":"50","prompt":"Right","lastChangedTime":null}],"trial_type":"canvas-sliders-response","trial_index":34,"time_elapsed":104156,"internal_node_id":"0.0-13.0-2.2"}],"confidenceCategory":0,"advisorAgrees":false,"advice":{"filePath":"assets/audio/voices/1/think_left.wav","string":"I think it was on the LEFT","loaded":true,"loading":true,"data":null,"buffer":{},"side":0,"confidence":0}},{"type":1,"typeName":"force","block":2,"advisorId":2,"choice":[],"answer":[1,1],"confidence":[100,100],"whichSide":0,"practice":false,"feedback":false,"warnings":[],"stimulusDrawTime":[105203.5000002943],"stimulusOffTime":[899.9999999068677,null],"fixationDrawTime":[104703.5000002943],"id":11,"dotDifference":12,"grid":{"dotCountL":212,"dotCountR":188,"gridWidth":20,"gridHeight":20,"dotWidth":2,"dotHeight":2,"paddingX":6,"paddingY":6,"gridL":[[1,0,1,1,0,1,0,1,0,1,0,0,1,1,0,1,0,1,0,0],[0,0,1,1,0,0,1,1,1,1,1,1,0,0,1,0,1,0,1,0],[0,0,0,1,0,0,0,1,0,1,0,0,0,1,1,1,1,1,0,1],[1,1,1,1,0,1,1,0,0,1,1,1,0,0,0,0,1,0,0,1],[1,0,0,0,0,0,1,0,1,0,0,1,1,0,1,0,1,0,1,0],[1,1,1,1,1,1,1,0,1,0,1,0,0,0,0,1,1,1,0,1],[1,1,0,1,1,1,0,1,0,0,1,0,1,1,1,1,0,1,0,1],[1,1,0,1,1,1,1,1,1,1,1,1,0,1,1,0,1,1,0,1],[1,1,0,1,1,1,1,1,1,1,1,0,1,0,0,1,0,1,0,0],[0,1,0,1,0,1,0,1,1,1,0,0,0,1,1,0,1,0,0,0],[1,1,1,0,0,1,1,0,0,1,1,0,0,0,0,1,0,1,0,0],[1,1,0,0,1,0,1,0,1,1,1,0,1,1,0,0,1,1,0,0],[1,1,0,1,1,1,0,0,1,1,1,1,1,1,0,0,0,0,0,0],[0,0,1,1,0,1,1,0,0,1,0,0,0,1,1,0,1,1,1,1],[1,1,1,1,1,0,1,1,1,1,0,0,0,0,0,1,0,0,1,1],[0,0,0,1,1,1,0,0,1,0,0,1,0,1,1,1,1,1,0,1],[0,0,0,1,1,0,1,0,0,0,1,0,1,0,1,1,1,1,0,1],[0,1,0,1,0,0,1,0,0,0,1,1,0,1,1,0,0,0,1,0],[0,0,0,0,1,0,1,0,0,1,1,0,1,1,0,0,0,1,0,1],[1,0,1,0,1,0,0,1,0,0,1,1,0,0,0,0,0,1,0,1]],"gridR":[[0,0,1,1,0,1,1,1,0,0,0,1,0,1,0,1,1,0,0,0],[1,1,1,1,1,0,1,1,0,1,0,0,0,1,0,1,0,1,1,1],[0,0,0,0,1,1,0,0,1,1,0,1,1,1,0,0,0,1,0,0],[1,1,1,1,1,1,0,1,1,1,0,1,0,1,0,0,0,1,1,1],[1,1,0,1,0,0,1,1,0,0,0,0,0,0,0,1,0,0,1,1],[1,1,0,0,0,1,1,1,1,1,1,1,0,1,1,0,0,1,1,0],[1,1,0,1,1,0,1,1,0,1,1,0,0,1,0,1,0,0,0,0],[1,0,0,1,0,0,0,1,1,1,0,1,0,0,1,1,0,0,0,1],[1,0,1,0,1,1,0,1,0,1,0,1,0,1,1,0,1,1,0,0],[0,0,0,1,1,1,0,1,1,0,1,1,0,0,1,0,1,0,1,1],[0,0,1,0,0,1,0,0,0,1,1,1,0,0,0,1,0,1,0,0],[1,0,0,1,0,1,1,0,0,0,0,1,0,1,1,0,0,1,1,1],[0,0,1,1,0,0,0,0,0,1,0,0,1,1,0,0,1,0,1,0],[0,0,0,0,0,0,0,0,0,0,0,0,0,0,1,0,0,1,1,0],[1,0,1,0,1,1,0,0,1,1,0,0,0,0,1,1,1,1,1,0],[0,1,0,1,0,0,1,1,1,0,0,1,0,0,0,0,0,1,1,1],[1,1,0,1,1,0,1,1,0,1,0,1,0,0,0,1,1,0,0,0],[0,0,1,0,0,0,0,0,0,1,0,0,1,0,0,1,0,0,1,0],[0,1,0,0,1,0,0,1,1,1,1,1,1,0,0,0,0,1,0,1],[1,1,0,1,0,0,1,0,0,1,0,1,1,0,0,0,1,1,0,1]],"displayWidth":172,"displayHeight":172,"spacing":100,"style":{"gridBorderColor":"#ffffff","gridBorderWidth":"3","dotColor":"#ffffff","dotLineWidth":"1"}},"pluginResponse":[{"startTime":104503.50000010803,"rt":2385.9999999403954,"response":[{"id":0,"name":"Left","answer":50,"prompt":"Left","lastChangedTime":null},{"id":1,"name":"Right","answer":"100","prompt":"Right","lastChangedTime":106403.5000000149}],"stimulusOffTime":899.9999999068677,"trial_type":"canvas-sliders-response","trial_index":35,"time_elapsed":106742,"internal_node_id":"0.0-13.0-0.3"},{"choiceTime":0,"choice":2,"totalTime":2001.9999998621643,"image":"http://localhost:8080/ExploringSocialMetacognition/assets/image/advisor3.png","adviceTime":2001.9999998621643,"trial_type":"jspsych-jas-present-advice-choice","trial_index":36,"time_elapsed":108744,"internal_node_id":"0.0-13.0-1.3"},{"startTime":108892.5000000745,"rt":2987.999999895692,"response":[{"id":0,"name":"Left","answer":50,"prompt":"Left","lastChangedTime":null},{"id":1,"name":"Right","answer":"100","prompt":"Right","lastChangedTime":111113.49999997765}],"trial_type":"canvas-sliders-response","trial_index":37,"time_elapsed":111734,"internal_node_id":"0.0-13.0-2.3"}],"confidenceCategory":0,"advisorAgrees":false,"advice":{"filePath":"assets/audio/voices/3/think_right.wav","string":"I think it was on the RIGHT","loaded":true,"loading":true,"data":null,"buffer":{},"side":1,"confidence":0}},{"type":2,"typeName":"choice","block":2,"advisorId":1,"choice":[1,2],"answer":[1,1],"confidence":[100,100],"whichSide":0,"practice":false,"feedback":false,"warnings":[],"stimulusDrawTime":[112786.49999992922],"stimulusOffTime":[901.0000000707805,null],"fixationDrawTime":[112285.50000023097],"id":12,"dotDifference":15,"grid":{"dotCountL":215,"dotCountR":185,"gridWidth":20,"gridHeight":20,"dotWidth":2,"dotHeight":2,"paddingX":6,"paddingY":6,"gridL":[[1,0,0,1,0,0,1,0,0,0,0,0,0,0,1,1,1,1,0,1],[0,1,1,0,1,0,1,1,1,0,1,1,1,0,0,1,1,0,1,0],[1,1,1,0,0,0,0,0,0,1,1,1,0,0,0,0,1,1,1,0],[1,1,1,0,1,0,1,1,0,1,0,1,1,1,0,0,1,1,1,1],[0,1,1,0,0,0,0,0,0,0,0,1,0,0,1,1,1,1,1,0],[0,0,1,1,1,1,1,0,0,0,1,0,1,0,1,1,1,1,1,1],[1,0,0,0,0,0,0,0,1,1,0,0,1,1,0,0,1,1,0,1],[0,1,0,0,1,1,0,0,1,1,0,0,1,1,1,1,0,0,0,1],[0,0,0,0,0,1,0,1,1,0,1,1,0,1,1,0,1,1,1,1],[0,1,1,1,0,1,0,0,1,0,0,1,1,0,0,1,0,0,0,1],[0,1,1,1,1,0,0,0,0,0,1,1,1,0,1,0,0,0,1,1],[1,0,1,0,0,0,0,0,0,1,1,0,1,1,1,0,0,1,1,1],[0,1,0,1,1,1,1,1,1,1,0,0,0,1,1,0,0,0,0,1],[1,0,1,0,0,0,1,0,0,0,0,1,1,0,0,0,0,1,1,1],[1,1,1,1,1,1,1,0,0,1,1,0,1,0,1,0,1,1,1,1],[0,0,0,1,1,0,1,1,1,1,1,0,1,0,1,0,1,1,1,0],[0,0,0,1,1,1,1,0,1,1,0,1,1,1,1,0,0,1,1,1],[0,0,0,1,1,1,0,1,0,0,0,1,0,1,1,1,0,0,0,1],[1,1,0,1,1,0,1,1,0,1,0,0,1,1,1,0,1,0,1,1],[0,1,0,1,1,0,1,1,0,1,1,0,0,1,1,1,1,0,1,0]],"gridR":[[1,1,0,0,1,1,1,0,0,1,0,0,1,0,1,0,1,0,1,1],[1,0,1,0,0,0,0,0,1,1,1,0,1,0,0,1,1,0,1,1],[1,1,0,0,1,0,0,0,1,1,0,0,0,1,1,0,0,0,0,1],[0,1,0,0,1,0,0,0,0,1,0,0,0,1,0,0,0,0,0,1],[1,0,0,1,1,1,0,0,1,0,1,1,0,1,1,1,1,0,1,0],[1,1,0,1,0,0,1,1,1,1,0,0,0,1,1,0,1,0,0,0],[1,1,0,0,0,0,0,0,1,0,0,0,0,1,1,0,1,0,0,0],[0,0,1,0,1,0,0,1,1,1,0,0,1,0,1,0,0,0,0,1],[0,1,0,1,1,0,0,0,0,0,0,0,0,1,1,1,0,0,0,0],[1,1,1,0,0,1,1,1,1,1,1,1,0,0,1,1,1,0,1,1],[1,1,1,0,0,0,1,0,1,1,1,1,0,1,1,1,0,0,0,1],[1,0,1,0,0,1,0,0,0,1,0,0,0,1,0,1,0,0,1,0],[0,0,0,1,0,1,0,1,0,0,1,1,1,1,1,0,0,0,0,1],[1,0,1,1,0,0,0,1,0,1,0,0,1,0,1,0,1,0,0,1],[1,0,1,1,0,0,1,1,1,0,0,1,0,1,0,0,0,1,1,0],[1,0,0,0,1,0,0,1,1,0,0,0,1,1,1,0,0,1,1,1],[0,0,1,1,1,0,0,0,1,1,0,1,1,1,1,1,1,0,1,0],[0,0,0,0,0,1,1,1,1,1,0,1,0,0,0,0,0,1,0,0],[0,1,1,0,0,0,0,1,0,0,1,1,1,0,1,1,0,0,1,1],[0,0,0,1,0,0,1,1,0,1,0,0,1,0,1,1,0,1,0,0]],"displayWidth":172,"displayHeight":172,"spacing":100,"style":{"gridBorderColor":"#ffffff","gridBorderWidth":"3","dotColor":"#ffffff","dotLineWidth":"1"}},"pluginResponse":[{"startTime":112084.49999988079,"rt":3473.000000230968,"response":[{"id":0,"name":"Left","answer":50,"prompt":"Left","lastChangedTime":null},{"id":1,"name":"Right","answer":"100","prompt":"Right","lastChangedTime":114535.50000023097}],"stimulusOffTime":901.0000000707805,"trial_type":"canvas-sliders-response","trial_index":38,"time_elapsed":115411,"internal_node_id":"0.0-13.0-0.4"},{"choiceTime":1500.9999996982515,"choice":1,"totalTime":3503.000000026077,"image":"http://localhost:8080/ExploringSocialMetacognition/assets/image/advisor2.png","adviceTime":2002.0000003278255,"trial_type":"jspsych-jas-present-advice-choice","trial_index":39,"time_elapsed":118914,"internal_node_id":"0.0-13.0-1.4"},{"startTime":119062.5,"rt":1646.0000001825392,"response":[{"id":0,"name":"Left","answer":50,"prompt":"Left","lastChangedTime":null},{"id":1,"name":"Right","answer":"100","prompt":"Right","lastChangedTime":120294.5000003092}],"trial_type":"canvas-sliders-response","trial_index":40,"time_elapsed":120562,"internal_node_id":"0.0-13.0-2.4"}],"confidenceCategory":0,"advisorAgrees":false,"advice":{"filePath":"assets/audio/voices/1/think_right.wav","string":"I think it was on the RIGHT","loaded":true,"loading":true,"data":null,"buffer":{},"side":1,"confidence":0}},{"type":2,"typeName":"choice","block":2,"advisorId":1,"choice":[1,2],"answer":[1,0],"confidence":[100,100],"whichSide":0,"practice":false,"feedback":false,"warnings":[],"stimulusDrawTime":[121610.49999995157],"stimulusOffTime":[899.9999999068677,null],"fixationDrawTime":[121110.49999995157],"id":13,"dotDifference":18,"grid":{"dotCountL":218,"dotCountR":182,"gridWidth":20,"gridHeight":20,"dotWidth":2,"dotHeight":2,"paddingX":6,"paddingY":6,"gridL":[[0,0,1,0,0,1,0,1,1,0,1,1,1,1,1,1,1,1,0,0],[0,0,1,0,0,0,0,0,1,0,0,0,0,1,0,0,0,0,0,0],[1,1,0,0,0,0,1,0,1,1,1,1,1,1,0,1,1,1,1,0],[0,1,0,1,0,0,0,1,0,1,1,0,0,0,0,0,1,0,0,0],[0,1,1,0,1,1,1,1,0,1,1,1,1,1,0,1,0,1,0,1],[1,1,1,1,1,0,0,1,0,0,1,1,0,1,1,1,0,1,0,0],[1,1,1,1,0,1,1,0,0,1,1,0,0,1,1,1,1,1,0,0],[1,1,0,0,1,1,1,1,1,1,1,1,0,0,1,0,0,1,1,1],[1,0,0,1,1,1,0,0,1,1,0,0,1,1,1,1,1,1,1,0],[1,0,0,1,1,0,1,1,0,0,0,1,0,0,1,0,1,1,0,1],[0,0,0,1,0,1,1,0,0,1,0,0,0,0,1,1,0,1,1,1],[1,0,0,0,0,1,0,0,1,0,0,1,1,0,0,0,1,0,1,1],[0,1,1,0,0,0,1,0,1,0,1,1,1,0,0,0,1,1,0,0],[1,1,0,1,1,1,0,1,0,1,1,1,1,1,1,0,0,1,1,1],[0,1,0,1,1,0,0,1,0,1,1,0,1,1,1,1,0,0,0,0],[1,0,0,0,0,0,1,0,1,1,1,1,1,1,1,0,0,1,0,1],[1,0,0,1,0,1,0,0,0,0,1,0,1,1,1,0,0,1,0,1],[1,1,1,0,0,0,1,0,1,0,1,1,1,0,0,1,1,0,0,1],[1,1,1,0,1,1,0,1,1,1,0,1,1,0,0,1,0,1,1,1],[1,1,1,1,1,0,0,0,1,1,1,0,1,0,0,1,1,1,0,0]],"gridR":[[1,0,0,1,1,1,0,1,0,1,1,0,0,1,0,1,0,0,1,1],[0,0,1,1,1,1,0,0,0,0,1,1,0,0,0,0,1,0,1,0],[0,1,0,1,1,0,1,1,1,0,0,0,0,1,1,0,1,1,0,0],[1,0,0,1,1,1,1,1,1,1,1,0,1,0,1,1,0,1,0,1],[0,0,1,1,0,1,1,1,0,0,0,1,1,1,1,0,0,1,0,1],[0,1,1,0,1,1,1,1,1,1,1,0,0,1,0,0,1,1,0,1],[0,1,0,1,0,0,1,0,0,0,1,1,0,1,0,0,1,0,0,0],[1,0,0,1,1,0,0,0,1,0,1,0,1,0,1,0,0,0,1,0],[0,0,1,0,0,0,1,0,1,0,1,0,0,0,0,0,0,1,0,0],[1,0,1,1,0,0,1,0,0,0,0,0,1,1,0,1,0,1,0,1],[0,0,1,0,0,0,1,0,0,1,1,0,0,0,1,0,1,1,1,0],[0,0,0,1,1,0,0,1,0,0,0,0,1,1,0,1,0,1,1,1],[0,1,1,1,0,0,1,0,1,1,1,0,1,0,1,0,1,1,0,0],[1,1,0,0,0,1,0,1,0,0,1,1,1,0,1,0,1,0,0,1],[1,0,1,0,0,0,0,0,0,1,0,0,0,0,1,1,1,1,0,0],[0,1,0,0,1,0,0,0,0,1,0,0,0,0,1,0,0,1,0,1],[0,1,1,1,0,1,1,0,0,1,0,1,0,1,1,1,0,1,0,0],[0,1,1,1,1,0,1,0,0,0,0,0,0,0,0,0,0,0,1,1],[1,0,0,0,0,0,0,0,0,1,0,0,1,1,1,1,0,1,0,1],[0,0,0,1,1,1,0,0,0,0,1,1,1,1,1,0,1,0,0,0]],"displayWidth":172,"displayHeight":172,"spacing":100,"style":{"gridBorderColor":"#ffffff","gridBorderWidth":"3","dotColor":"#ffffff","dotLineWidth":"1"}},"pluginResponse":[{"startTime":120910.50000023097,"rt":2321.999999694526,"response":[{"id":0,"name":"Left","answer":50,"prompt":"Left","lastChangedTime":null},{"id":1,"name":"Right","answer":"100","prompt":"Right","lastChangedTime":122785.50000023097}],"stimulusOffTime":899.9999999068677,"trial_type":"canvas-sliders-response","trial_index":41,"time_elapsed":123086,"internal_node_id":"0.0-13.0-0.5"},{"choiceTime":1495.9999998100102,"choice":1,"totalTime":3498.999999836087,"image":"http://localhost:8080/ExploringSocialMetacognition/assets/image/advisor2.png","adviceTime":2003.000000026077,"trial_type":"jspsych-jas-present-advice-choice","trial_index":42,"time_elapsed":126585,"internal_node_id":"0.0-13.0-1.5"},{"startTime":126733.5000000894,"rt":1347.0000000670552,"response":[{"id":0,"name":"Left","answer":100,"prompt":"Left","lastChangedTime":127474.50000001118},{"id":1,"name":"Right","answer":"50","prompt":"Right","lastChangedTime":null}],"trial_type":"canvas-sliders-response","trial_index":43,"time_elapsed":127934,"internal_node_id":"0.0-13.0-2.5"}],"confidenceCategory":0,"advisorAgrees":true,"advice":{"filePath":"assets/audio/voices/1/left_think.wav","string":"It was on the LEFT, I think","loaded":true,"loading":true,"data":null,"buffer":{},"side":0,"confidence":0}},{"type":2,"typeName":"choice","block":2,"advisorId":2,"choice":[1,2],"answer":[0,0],"confidence":[100,99],"whichSide":0,"practice":false,"feedback":false,"warnings":[],"stimulusDrawTime":[128982.4999999255],"stimulusOffTime":[899.9999999068677,null],"fixationDrawTime":[128482.4999999255],"id":14,"dotDifference":21,"grid":{"dotCountL":221,"dotCountR":179,"gridWidth":20,"gridHeight":20,"dotWidth":2,"dotHeight":2,"paddingX":6,"paddingY":6,"gridL":[[1,0,0,1,0,0,0,1,1,0,1,0,1,1,0,1,1,1,1,1],[0,1,1,0,0,1,1,1,1,1,0,0,0,1,0,1,0,0,1,0],[0,0,1,1,0,1,1,0,0,1,1,1,0,0,1,0,0,1,0,0],[1,0,1,1,1,0,1,0,1,1,1,0,0,0,0,1,0,0,1,1],[0,1,1,0,1,0,1,1,1,0,0,0,1,1,1,1,1,0,1,1],[0,0,1,0,1,0,0,1,0,1,0,1,0,1,0,0,0,1,1,0],[0,0,1,0,1,1,1,0,1,1,1,0,1,0,0,0,0,0,1,1],[1,0,1,1,0,1,0,1,1,1,0,1,0,0,1,1,1,1,1,1],[0,0,1,0,1,1,1,0,1,0,1,1,0,1,0,0,1,1,1,1],[0,1,1,0,1,0,1,1,1,1,0,1,1,0,0,1,1,0,0,0],[1,1,1,1,0,1,1,1,0,1,0,0,1,0,0,1,0,1,1,1],[1,1,1,1,1,0,1,0,1,0,1,0,1,0,0,1,1,1,0,1],[0,0,1,0,0,1,1,1,1,1,0,0,0,0,1,1,0,1,1,1],[1,0,0,0,1,1,0,1,0,0,1,0,0,1,0,0,0,1,1,0],[1,1,0,1,1,1,1,0,0,0,1,1,1,1,0,0,1,0,0,1],[0,0,0,0,1,1,0,1,0,1,0,0,1,0,1,1,1,1,1,1],[1,0,1,1,1,1,0,1,1,1,1,0,1,1,1,0,0,0,0,1],[1,0,1,0,0,0,0,1,0,0,1,1,0,1,0,0,1,1,1,0],[1,1,0,0,0,0,0,1,0,1,0,1,0,1,0,0,1,0,0,1],[1,1,0,1,1,0,0,1,1,1,0,1,0,1,1,1,1,0,1,0]],"gridR":[[0,1,0,0,1,1,0,0,0,0,0,0,1,0,0,1,1,0,0,1],[0,1,0,0,1,1,0,1,1,0,1,1,1,0,1,0,0,1,1,1],[0,0,1,0,1,1,0,0,1,0,1,1,0,1,1,1,1,1,1,0],[1,0,0,0,1,0,0,0,0,0,0,1,1,0,0,0,0,1,0,1],[1,0,1,0,0,1,1,1,0,1,0,0,0,0,1,1,0,0,1,0],[1,1,0,1,0,0,1,1,0,0,1,1,1,0,1,0,1,1,1,0],[0,1,0,1,0,0,1,1,1,0,0,1,0,1,0,0,0,1,1,0],[0,0,1,0,0,1,0,0,0,0,0,1,1,1,1,0,0,1,0,1],[0,0,0,1,1,0,0,1,0,0,1,1,1,0,0,0,0,0,0,1],[1,0,1,1,1,1,1,0,1,0,0,1,0,1,1,0,1,0,0,1],[1,0,0,1,0,0,0,0,0,0,0,1,0,0,1,0,0,0,1,0],[1,1,0,0,1,1,0,0,0,1,0,0,0,1,0,0,1,0,1,0],[1,1,0,1,0,0,0,0,0,1,1,0,1,0,0,1,1,0,0,0],[0,1,1,0,0,0,0,0,0,0,0,0,1,0,0,1,0,0,0,1],[0,1,0,0,0,1,0,1,1,1,0,0,1,1,1,0,0,0,1,0],[1,1,0,1,0,0,1,0,1,0,1,0,0,0,1,1,0,0,0,1],[0,0,0,1,1,1,1,0,1,0,1,1,1,0,1,1,0,1,0,0],[1,0,1,0,0,1,0,0,0,0,0,0,1,0,1,0,0,1,1,1],[1,0,1,1,1,1,0,1,0,1,0,1,0,0,1,1,1,1,0,0],[0,0,1,1,0,0,0,0,1,1,1,0,1,1,0,0,1,1,0,1]],"displayWidth":172,"displayHeight":172,"spacing":100,"style":{"gridBorderColor":"#ffffff","gridBorderWidth":"3","dotColor":"#ffffff","dotLineWidth":"1"}},"pluginResponse":[{"startTime":128282.50000020489,"rt":3415.000000037253,"response":[{"id":0,"name":"Left","answer":100,"prompt":"Left","lastChangedTime":131134.5000001602},{"id":1,"name":"Right","answer":"50","prompt":"Right","lastChangedTime":null}],"stimulusOffTime":899.9999999068677,"trial_type":"canvas-sliders-response","trial_index":44,"time_elapsed":131551,"internal_node_id":"0.0-13.0-0.6"},{"choiceTime":3501.000000163913,"choice":2,"totalTime":5503.000000026077,"image":"http://localhost:8080/ExploringSocialMetacognition/assets/image/advisor3.png","adviceTime":2001.9999998621643,"trial_type":"jspsych-jas-present-advice-choice","trial_index":45,"time_elapsed":137054,"internal_node_id":"0.0-13.0-1.6"},{"startTime":137202.50000013039,"rt":3296.9999997876585,"response":[{"id":0,"name":"Left","answer":99,"prompt":"Left","lastChangedTime":139780.49999987707},{"id":1,"name":"Right","answer":"50","prompt":"Right","lastChangedTime":null}],"trial_type":"canvas-sliders-response","trial_index":46,"time_elapsed":140352,"internal_node_id":"0.0-13.0-2.6"}],"confidenceCategory":0,"advisorAgrees":true,"advice":{"filePath":"assets/audio/voices/3/think_left.wav","string":"I think it was on the LEFT","loaded":true,"loading":true,"data":null,"buffer":{},"side":0,"confidence":0}},{"type":2,"typeName":"choice","block":2,"advisorId":2,"choice":[2,1],"answer":[0,0],"confidence":[100,100],"whichSide":0,"practice":false,"feedback":false,"warnings":[],"stimulusDrawTime":[141400.49999998882],"stimulusOffTime":[899.9999999068677,null],"fixationDrawTime":[140900.49999998882],"id":15,"dotDifference":21,"grid":{"dotCountL":221,"dotCountR":179,"gridWidth":20,"gridHeight":20,"dotWidth":2,"dotHeight":2,"paddingX":6,"paddingY":6,"gridL":[[1,1,1,1,1,0,1,1,0,0,1,0,0,1,0,1,1,0,0,0],[0,0,0,0,0,1,1,1,1,1,1,0,1,1,1,1,0,0,0,0],[1,0,0,0,1,0,0,0,1,0,1,1,0,0,1,0,0,1,1,1],[0,0,1,1,1,1,0,0,1,1,1,1,1,1,0,1,0,1,0,1],[1,0,1,0,0,1,0,0,1,0,1,1,0,0,1,1,1,0,0,1],[0,0,0,1,0,1,1,0,0,1,0,0,1,1,1,1,1,0,0,0],[1,1,1,1,1,1,1,1,0,0,1,0,1,1,0,1,1,0,0,1],[0,1,1,1,1,1,0,1,0,0,1,1,1,0,1,1,0,0,1,1],[0,0,0,0,0,1,1,0,1,1,1,1,0,0,1,1,1,0,1,1],[1,0,1,1,0,0,1,1,0,1,1,1,0,1,1,0,1,0,1,0],[1,1,0,1,0,0,1,0,1,0,1,0,0,1,0,1,1,1,1,0],[1,1,1,1,1,0,1,1,1,1,1,0,0,1,1,0,0,0,0,1],[1,1,1,1,1,1,1,1,1,0,1,1,1,1,0,0,0,1,1,0],[1,0,1,1,1,0,0,1,1,0,1,0,0,1,0,1,0,1,1,0],[1,1,1,0,1,0,1,1,1,1,1,1,1,1,1,0,1,1,0,1],[0,1,0,0,1,0,0,0,0,1,0,1,0,0,1,1,0,0,0,1],[1,0,1,1,0,0,1,0,0,1,1,1,0,0,0,0,1,1,0,1],[0,1,0,1,0,1,0,1,1,0,0,0,0,1,1,0,1,0,0,0],[0,0,0,1,1,1,0,1,0,0,1,0,1,0,1,1,0,1,0,1],[1,1,0,1,1,1,1,1,0,0,0,0,0,0,0,0,0,0,1,0]],"gridR":[[1,0,1,0,1,0,1,0,1,0,0,1,0,0,0,0,1,1,0,1],[1,0,1,0,1,1,1,1,1,0,0,0,1,1,1,1,1,1,1,0],[1,1,1,1,0,1,1,1,1,1,0,1,0,0,1,0,1,0,0,0],[1,0,0,0,0,0,1,0,1,0,0,0,1,0,1,1,0,0,0,1],[0,0,1,0,0,0,1,0,0,0,0,1,1,1,1,1,0,1,1,0],[0,1,0,0,0,0,1,1,1,0,0,0,1,0,0,1,1,1,0,1],[0,0,0,0,0,1,1,1,1,0,0,0,0,1,0,0,0,1,0,1],[0,0,0,0,0,1,0,0,1,1,0,1,0,1,1,0,0,1,1,1],[0,0,0,0,1,1,1,1,0,1,1,1,0,1,1,0,1,0,1,1],[1,0,0,1,1,1,0,0,1,0,0,0,0,1,0,1,0,0,0,1],[0,0,1,0,0,0,0,1,1,1,0,1,1,1,0,1,1,0,1,0],[1,1,1,0,0,1,0,0,1,0,0,1,0,0,0,0,1,0,1,1],[0,0,0,0,0,1,1,0,1,1,1,0,1,1,0,0,1,0,1,1],[0,1,0,0,0,1,1,0,1,0,1,0,1,0,0,0,0,0,0,1],[0,1,0,1,0,1,0,1,0,0,0,0,1,0,0,0,1,0,1,0],[0,1,0,0,1,0,0,0,0,1,1,1,0,0,1,1,1,0,1,1],[0,0,0,1,0,0,1,0,0,0,0,0,0,0,1,0,0,0,0,0],[1,0,1,1,1,0,0,1,0,1,0,0,1,1,1,0,0,0,0,0],[1,1,0,0,1,1,0,0,1,0,1,0,0,0,0,1,0,1,1,0],[1,0,1,1,0,1,0,0,1,0,0,0,1,1,1,0,0,0,0,1]],"displayWidth":172,"displayHeight":172,"spacing":100,"style":{"gridBorderColor":"#ffffff","gridBorderWidth":"3","dotColor":"#ffffff","dotLineWidth":"1"}},"pluginResponse":[{"startTime":140700.50000026822,"rt":2293.00000006333,"response":[{"id":0,"name":"Left","answer":100,"prompt":"Left","lastChangedTime":142615.50000030547},{"id":1,"name":"Right","answer":"50","prompt":"Right","lastChangedTime":null}],"stimulusOffTime":899.9999999068677,"trial_type":"canvas-sliders-response","trial_index":47,"time_elapsed":142846,"internal_node_id":"0.0-13.0-0.7"},{"choiceTime":549.9999998137355,"choice":2,"totalTime":2551.9999996758997,"image":"http://localhost:8080/ExploringSocialMetacognition/assets/image/advisor3.png","adviceTime":2001.9999998621643,"trial_type":"jspsych-jas-present-advice-choice","trial_index":48,"time_elapsed":145398,"internal_node_id":"0.0-13.0-1.7"},{"startTime":145546.50000017136,"rt":1623.9999998360872,"response":[{"id":0,"name":"Left","answer":100,"prompt":"Left","lastChangedTime":146597.500000149},{"id":1,"name":"Right","answer":"50","prompt":"Right","lastChangedTime":null}],"trial_type":"canvas-sliders-response","trial_index":49,"time_elapsed":147024,"internal_node_id":"0.0-13.0-2.7"}],"confidenceCategory":0,"advisorAgrees":true,"advice":{"filePath":"assets/audio/voices/3/think_left.wav","string":"I think it was on the LEFT","loaded":true,"loading":true,"data":null,"buffer":{},"side":0,"confidence":0}},{"type":2,"typeName":"choice","block":2,"advisorId":1,"choice":[2,1],"answer":[0,0],"confidence":[100,98],"whichSide":0,"practice":false,"feedback":false,"warnings":[],"stimulusDrawTime":[148073.4999999404],"stimulusOffTime":[901.0000000707805,null],"fixationDrawTime":[147573.4999999404],"id":16,"dotDifference":18,"grid":{"dotCountL":218,"dotCountR":182,"gridWidth":20,"gridHeight":20,"dotWidth":2,"dotHeight":2,"paddingX":6,"paddingY":6,"gridL":[[0,1,0,1,1,1,1,1,0,1,0,1,1,1,0,1,0,1,0,1],[1,1,1,1,1,0,0,1,1,0,1,0,1,1,1,1,0,1,0,1],[1,0,1,0,0,0,1,1,1,0,1,0,0,1,1,0,1,1,1,0],[0,0,1,1,0,1,0,0,0,1,0,1,1,0,0,0,1,1,0,1],[1,0,1,1,1,1,0,1,1,0,1,0,0,0,1,1,0,1,0,1],[0,0,0,0,0,1,1,0,0,0,0,1,1,1,1,0,0,0,1,0],[0,1,0,1,1,0,0,1,1,0,0,1,0,1,0,1,0,1,0,0],[1,1,1,1,0,1,1,1,1,1,1,1,1,1,1,0,1,1,1,1],[0,1,0,1,0,0,1,1,1,1,1,1,1,1,0,0,0,1,0,0],[1,1,0,0,0,0,0,0,0,1,1,0,0,1,1,1,1,0,1,0],[0,1,0,1,1,0,1,1,1,1,1,1,0,1,0,0,0,1,1,0],[0,0,1,1,1,1,1,0,0,1,1,1,1,1,1,0,0,0,0,1],[0,0,0,0,1,1,1,1,1,0,1,0,1,0,0,1,0,0,0,1],[1,0,0,1,0,0,1,1,1,1,1,1,0,0,0,0,0,1,1,1],[1,1,1,1,1,1,0,1,1,1,0,1,0,1,1,1,0,0,1,0],[1,1,0,1,0,0,1,0,0,1,0,1,0,0,0,1,1,1,0,1],[0,0,0,1,1,1,0,0,0,1,0,0,1,1,1,1,1,0,1,1],[0,1,0,0,0,1,1,1,1,1,1,0,1,1,1,0,0,1,1,1],[0,1,0,1,0,0,0,1,1,0,0,0,0,0,1,1,0,0,0,0],[1,0,0,1,0,0,1,0,0,0,0,1,0,1,0,0,0,1,1,0]],"gridR":[[1,0,1,0,1,0,1,0,1,0,0,0,0,1,1,0,0,0,0,1],[0,0,0,1,0,0,1,0,1,0,0,0,0,0,1,0,1,1,0,0],[1,1,1,0,0,1,1,0,0,0,0,0,0,1,1,1,0,0,1,0],[0,0,0,1,0,0,0,0,0,0,1,0,1,1,1,1,1,0,0,1],[0,1,0,1,1,0,0,0,1,0,0,1,1,0,1,1,1,1,0,0],[0,0,1,1,0,1,1,1,0,0,1,0,0,1,0,1,1,1,0,0],[1,0,0,1,0,0,0,0,0,0,1,1,0,1,0,1,1,1,1,0],[0,0,1,1,0,1,0,1,1,0,0,1,0,1,1,1,1,1,1,0],[1,0,1,0,1,0,0,0,0,0,1,0,0,1,0,1,0,0,0,0],[1,1,1,0,0,1,1,1,1,1,0,1,0,1,0,1,1,1,1,1],[0,1,1,0,1,1,1,1,0,0,0,0,0,1,0,0,1,1,1,1],[0,1,0,1,0,0,0,0,0,1,0,1,0,0,0,0,1,0,0,1],[0,1,0,1,0,1,0,1,0,0,0,1,1,0,0,1,0,0,1,1],[1,1,0,0,1,0,1,1,0,0,0,0,0,1,1,0,1,0,1,1],[1,1,0,0,0,0,0,0,0,0,0,0,0,0,1,1,0,0,0,1],[1,0,0,0,0,1,1,1,0,0,0,1,1,1,0,1,1,0,0,0],[1,0,0,1,0,0,1,1,0,0,0,1,0,1,0,1,0,1,0,0],[1,1,0,1,0,1,0,1,0,0,1,1,1,1,1,1,0,0,0,1],[1,1,1,0,1,0,0,0,0,1,1,0,0,1,1,1,1,1,0,1],[0,0,0,1,1,1,0,0,1,0,1,0,0,1,0,0,0,0,0,1]],"displayWidth":172,"displayHeight":172,"spacing":100,"style":{"gridBorderColor":"#ffffff","gridBorderWidth":"3","dotColor":"#ffffff","dotLineWidth":"1"}},"pluginResponse":[{"startTime":147372.50000005588,"rt":2983.0000000074506,"response":[{"id":0,"name":"Left","answer":100,"prompt":"Left","lastChangedTime":149675.4999998957},{"id":1,"name":"Right","answer":"50","prompt":"Right","lastChangedTime":null}],"stimulusOffTime":901.0000000707805,"trial_type":"canvas-sliders-response","trial_index":50,"time_elapsed":150209,"internal_node_id":"0.0-13.0-0.8"},{"choiceTime":621.999999973923,"choice":1,"totalTime":2623.999999836087,"image":"http://localhost:8080/ExploringSocialMetacognition/assets/image/advisor2.png","adviceTime":2001.9999998621643,"trial_type":"jspsych-jas-present-advice-choice","trial_index":51,"time_elapsed":152833,"internal_node_id":"0.0-13.0-1.8"},{"startTime":152981.50000022724,"rt":2520.0000000186265,"response":[{"id":0,"name":"Left","answer":98,"prompt":"Left","lastChangedTime":154873.5000002198},{"id":1,"name":"Right","answer":"50","prompt":"Right","lastChangedTime":null}],"trial_type":"canvas-sliders-response","trial_index":52,"time_elapsed":155355,"internal_node_id":"0.0-13.0-2.8"}],"confidenceCategory":0,"advisorAgrees":true,"advice":{"filePath":"assets/audio/voices/1/left_think.wav","string":"It was on the LEFT, I think","loaded":true,"loading":true,"data":null,"buffer":{},"side":0,"confidence":0}},{"type":1,"typeName":"force","block":2,"advisorId":2,"choice":[],"answer":[0,0],"confidence":[100,100],"whichSide":1,"practice":false,"feedback":false,"warnings":[],"stimulusDrawTime":[156403.5000000149],"stimulusOffTime":[899.9999999068677,null],"fixationDrawTime":[155904.5000001788],"id":17,"dotDifference":15,"grid":{"dotCountL":185,"dotCountR":215,"gridWidth":20,"gridHeight":20,"dotWidth":2,"dotHeight":2,"paddingX":6,"paddingY":6,"gridL":[[0,1,0,1,0,0,1,0,0,1,0,0,1,1,1,1,0,0,1,1],[1,0,1,0,1,1,1,0,0,0,1,0,1,0,1,0,0,1,1,1],[0,0,1,1,1,0,1,0,0,0,0,1,1,0,1,0,0,1,1,1],[1,1,0,0,0,0,1,0,1,1,1,0,1,1,0,1,0,0,0,1],[1,1,0,0,1,1,0,0,1,0,0,0,0,1,0,0,0,1,0,1],[0,0,1,1,1,0,0,1,0,0,0,0,1,0,0,1,1,1,0,0],[0,1,1,1,0,1,0,0,1,1,1,0,0,1,1,0,0,1,1,0],[1,0,0,1,1,0,1,0,1,0,1,0,1,0,0,1,1,1,1,0],[0,0,0,0,1,1,0,1,1,1,0,0,1,0,0,0,0,1,0,0],[0,1,1,1,0,1,0,1,1,1,1,0,0,0,1,0,0,1,1,1],[0,1,0,0,0,0,1,0,0,0,0,1,1,1,0,1,1,1,1,1],[1,0,0,1,1,0,1,0,0,0,1,1,0,1,1,0,1,0,1,1],[0,1,0,0,1,0,1,1,0,1,0,1,0,0,0,0,0,0,1,1],[0,0,1,0,0,0,0,0,0,0,1,0,1,0,1,1,0,0,0,0],[0,1,1,1,0,0,1,0,0,0,0,0,0,0,0,1,0,0,1,1],[1,0,1,1,0,0,1,1,1,1,1,0,1,0,1,1,1,0,1,0],[0,1,0,0,0,0,1,0,0,0,1,1,1,1,0,1,0,1,0,1],[0,0,1,0,0,0,1,0,0,0,0,0,0,1,1,0,1,0,0,0],[0,1,1,1,1,0,0,1,1,1,1,1,0,0,1,0,0,1,1,0],[0,0,0,0,0,0,1,1,0,1,0,0,1,0,0,1,0,1,0,1]],"gridR":[[0,1,0,0,0,1,1,1,0,0,1,0,0,1,1,0,1,1,1,0],[1,0,0,1,1,0,1,0,0,0,0,1,1,1,1,1,1,1,1,1],[0,1,1,1,1,1,1,1,0,0,1,0,1,0,1,1,0,0,0,0],[1,1,0,1,1,0,1,1,1,0,1,0,0,1,0,1,0,1,0,0],[1,0,0,1,1,0,0,0,0,1,0,1,0,1,1,0,0,0,0,1],[1,1,1,0,1,1,1,0,0,1,1,0,1,0,0,0,0,1,0,1],[0,0,0,1,1,1,0,1,0,0,1,1,1,1,0,1,0,1,1,1],[0,1,1,1,1,1,1,1,1,1,1,0,0,1,1,1,1,1,0,0],[0,1,0,0,1,1,0,1,0,1,0,1,1,0,0,0,0,1,0,1],[0,0,0,0,1,1,1,1,0,0,1,1,0,0,1,0,0,1,0,0],[1,0,0,0,0,1,0,1,0,0,0,0,1,0,1,0,0,0,0,0],[1,1,1,1,1,1,1,1,1,0,1,1,0,0,0,1,1,1,1,1],[0,0,1,0,0,1,1,0,0,1,0,1,1,1,1,0,1,1,1,1],[1,0,1,0,0,0,1,1,1,0,1,0,1,1,0,1,1,0,1,1],[0,0,0,1,0,1,0,0,1,1,1,1,0,0,1,0,0,0,1,1],[0,1,0,1,0,1,1,0,0,0,1,1,0,1,0,1,1,1,1,1],[1,0,0,0,1,0,1,1,0,0,0,0,1,0,0,1,1,1,0,0],[1,0,0,1,0,0,1,0,1,1,1,1,1,1,1,0,0,0,0,1],[1,1,1,0,1,0,0,0,0,1,1,0,1,0,1,1,0,0,1,1],[0,0,1,0,1,1,1,1,1,0,1,0,0,0,1,1,0,1,1,0]],"displayWidth":172,"displayHeight":172,"spacing":100,"style":{"gridBorderColor":"#ffffff","gridBorderWidth":"3","dotColor":"#ffffff","dotLineWidth":"1"}},"pluginResponse":[{"startTime":155703.5000002943,"rt":2662.000000011176,"response":[{"id":0,"name":"Left","answer":100,"prompt":"Left","lastChangedTime":157878.50000010803},{"id":1,"name":"Right","answer":"50","prompt":"Right","lastChangedTime":null}],"stimulusOffTime":899.9999999068677,"trial_type":"canvas-sliders-response","trial_index":53,"time_elapsed":158218,"internal_node_id":"0.0-13.0-0.9"},{"choiceTime":0,"choice":2,"totalTime":2001.9999998621643,"image":"http://localhost:8080/ExploringSocialMetacognition/assets/image/advisor3.png","adviceTime":2001.9999998621643,"trial_type":"jspsych-jas-present-advice-choice","trial_index":54,"time_elapsed":160221,"internal_node_id":"0.0-13.0-1.9"},{"startTime":160368.50000033155,"rt":2429.999999701977,"response":[{"id":0,"name":"Left","answer":100,"prompt":"Left","lastChangedTime":161879.50000027195},{"id":1,"name":"Right","answer":"50","prompt":"Right","lastChangedTime":null}],"trial_type":"canvas-sliders-response","trial_index":55,"time_elapsed":162652,"internal_node_id":"0.0-13.0-2.9"}],"confidenceCategory":0,"advisorAgrees":true,"advice":{"filePath":"assets/audio/voices/3/right_think.wav","string":"It was on the RIGHT, I think","loaded":true,"loading":true,"data":null,"buffer":{},"side":1,"confidence":0}},{"type":1,"typeName":"force","block":2,"advisorId":2,"choice":[],"answer":[0,0],"confidence":[100,100],"whichSide":0,"practice":false,"feedback":false,"warnings":[],"stimulusDrawTime":[163702.50000013039],"stimulusOffTime":[899.9999999068677,null],"fixationDrawTime":[163200.50000026822],"id":18,"dotDifference":18,"grid":{"dotCountL":218,"dotCountR":182,"gridWidth":20,"gridHeight":20,"dotWidth":2,"dotHeight":2,"paddingX":6,"paddingY":6,"gridL":[[1,1,0,0,1,1,1,0,0,1,0,1,0,0,1,1,0,0,0,1],[0,0,0,0,0,1,1,0,1,1,0,0,1,1,0,0,0,1,0,1],[1,0,0,1,0,1,0,1,0,1,0,0,1,1,0,1,1,1,1,1],[1,1,1,0,1,1,0,0,0,0,1,0,1,1,1,1,0,1,0,1],[0,1,1,1,0,0,1,1,1,0,1,0,1,0,1,1,1,1,1,1],[0,0,0,0,1,0,0,0,1,0,1,0,0,0,0,1,0,1,1,0],[0,1,1,1,0,1,0,1,1,0,0,1,1,1,0,0,1,1,0,1],[1,0,1,0,1,1,1,0,1,1,1,0,1,0,1,0,1,1,0,1],[1,0,0,1,1,1,1,0,1,1,0,0,0,0,1,1,0,0,1,1],[1,1,0,1,0,0,1,0,1,0,0,1,1,0,1,1,1,1,1,1],[1,1,1,1,0,0,1,0,1,0,1,1,0,0,0,1,0,1,1,1],[1,0,1,0,0,1,1,0,0,0,1,1,1,1,0,1,0,1,1,0],[0,0,1,1,0,1,0,0,0,0,0,0,0,1,1,0,0,1,0,1],[1,0,1,1,0,0,0,0,1,0,0,1,1,1,1,1,0,0,1,1],[1,1,0,0,0,0,1,1,1,1,1,0,0,1,0,1,0,1,1,0],[0,0,1,1,1,0,0,1,0,0,0,0,1,1,0,0,1,1,0,1],[0,1,0,1,0,0,1,0,1,0,0,0,0,0,0,1,0,0,1,1],[1,0,1,1,0,1,1,0,1,1,1,1,0,0,0,1,0,0,1,1],[0,0,0,1,0,0,1,1,1,1,1,1,1,0,1,1,0,1,1,0],[0,1,0,1,1,1,1,1,1,1,1,1,1,1,0,1,1,1,0,0]],"gridR":[[0,0,1,1,0,1,1,0,0,0,1,0,0,1,0,1,1,0,0,0],[1,0,0,0,0,1,1,1,1,1,0,1,0,1,1,1,1,0,1,0],[0,1,0,0,1,1,0,1,0,0,0,0,1,1,0,0,1,1,1,1],[0,1,0,0,1,0,0,1,1,1,1,0,0,0,1,1,0,1,1,0],[1,1,0,0,1,1,1,1,0,1,1,0,1,1,0,0,0,0,0,1],[1,1,0,0,0,0,1,0,0,1,0,0,1,0,0,0,0,1,1,0],[0,1,1,0,1,1,1,0,0,0,1,0,0,0,0,1,1,1,0,0],[0,0,1,1,0,1,1,0,0,1,0,0,0,0,0,1,0,0,0,0],[0,1,0,0,0,0,0,0,0,0,1,0,1,0,0,1,1,1,0,0],[0,1,0,0,1,0,0,1,0,1,0,0,1,0,1,1,0,0,1,0],[1,1,0,0,0,0,1,0,1,0,1,1,1,1,0,1,0,1,1,1],[0,0,0,0,0,1,0,1,1,1,0,1,1,0,0,1,0,1,1,0],[0,1,1,0,1,1,0,0,1,0,0,1,1,1,1,0,1,0,0,0],[1,0,0,0,0,0,1,1,0,1,1,1,0,1,0,0,0,0,0,0],[0,1,1,1,1,1,1,1,0,0,0,0,0,0,1,1,0,1,0,0],[0,1,0,1,1,1,1,1,1,1,0,0,1,0,1,1,0,0,0,1],[1,0,1,1,1,0,0,0,1,0,1,1,0,0,0,0,0,0,0,1],[1,0,1,1,0,1,0,1,0,1,0,0,0,1,0,0,1,1,1,0],[1,1,0,0,1,0,1,1,0,1,0,0,0,0,1,0,1,1,0,0],[0,0,1,0,1,0,1,1,0,1,0,0,1,0,1,0,0,0,0,1]],"displayWidth":172,"displayHeight":172,"spacing":100,"style":{"gridBorderColor":"#ffffff","gridBorderWidth":"3","dotColor":"#ffffff","dotLineWidth":"1"}},"pluginResponse":[{"startTime":163000.50000008196,"rt":2641.9999999925494,"response":[{"id":0,"name":"Left","answer":100,"prompt":"Left","lastChangedTime":164864.50000014156},{"id":1,"name":"Right","answer":"50","prompt":"Right","lastChangedTime":null}],"stimulusOffTime":899.9999999068677,"trial_type":"canvas-sliders-response","trial_index":56,"time_elapsed":165497,"internal_node_id":"0.0-13.0-0.10"},{"choiceTime":0,"choice":2,"totalTime":2001.9999998621643,"image":"http://localhost:8080/ExploringSocialMetacognition/assets/image/advisor3.png","adviceTime":2001.9999998621643,"trial_type":"jspsych-jas-present-advice-choice","trial_index":57,"time_elapsed":167499,"internal_node_id":"0.0-13.0-1.10"},{"startTime":167646.5000002645,"rt":2139.999999664724,"response":[{"id":0,"name":"Left","answer":100,"prompt":"Left","lastChangedTime":169150.49999998882},{"id":1,"name":"Right","answer":"50","prompt":"Right","lastChangedTime":null}],"trial_type":"canvas-sliders-response","trial_index":58,"time_elapsed":169640,"internal_node_id":"0.0-13.0-2.10"}],"confidenceCategory":0,"advisorAgrees":true,"advice":{"filePath":"assets/audio/voices/3/left_think.wav","string":"It was on the LEFT, I think","loaded":true,"loading":true,"data":null,"buffer":{},"side":0,"confidence":0}},{"type":1,"typeName":"force","block":2,"advisorId":1,"choice":[],"answer":[0,0],"confidence":[100,100],"whichSide":0,"practice":false,"feedback":false,"warnings":[],"stimulusDrawTime":[170689.50000032783],"stimulusOffTime":[902.0000002346933,null],"fixationDrawTime":[170189.50000032783],"id":19,"dotDifference":18,"grid":{"dotCountL":218,"dotCountR":182,"gridWidth":20,"gridHeight":20,"dotWidth":2,"dotHeight":2,"paddingX":6,"paddingY":6,"gridL":[[1,1,1,0,1,0,1,1,0,0,0,1,0,1,0,0,1,1,1,0],[1,0,0,0,1,1,1,1,0,1,1,0,1,0,0,0,1,1,1,0],[1,1,0,1,1,1,0,1,1,1,0,1,1,1,0,1,1,1,1,0],[0,1,0,1,1,1,0,0,1,1,1,0,0,1,1,1,1,1,0,0],[0,0,0,1,1,1,1,1,1,0,1,0,1,0,1,0,1,0,1,0],[1,0,1,1,1,1,0,1,0,1,1,0,0,0,0,0,0,1,1,1],[0,1,1,1,0,1,1,0,1,1,0,1,1,0,1,0,0,0,0,0],[1,0,0,1,0,0,0,0,0,1,1,0,1,1,0,0,1,1,0,1],[1,1,0,1,0,0,1,1,1,0,1,1,0,0,0,0,0,0,1,1],[0,1,0,0,0,0,0,1,0,1,1,1,0,0,0,0,0,1,1,1],[1,0,1,1,1,0,0,1,0,0,1,1,1,1,1,1,0,0,1,1],[0,1,0,1,1,0,1,1,1,1,0,0,0,1,1,1,1,1,0,1],[0,0,0,0,1,0,0,0,1,1,0,0,1,1,0,1,0,1,1,1],[0,0,0,1,0,1,1,0,1,0,1,0,0,1,0,0,0,0,1,0],[1,1,1,1,0,0,0,0,0,1,0,1,1,1,1,1,1,0,0,1],[0,1,0,1,1,1,0,0,0,1,0,1,0,1,1,1,0,1,0,1],[1,0,0,1,0,1,1,1,0,1,0,1,0,1,1,1,0,0,0,1],[1,1,1,1,0,0,1,1,0,1,0,1,0,0,1,0,0,0,1,0],[0,0,1,0,1,0,1,1,1,1,1,1,1,1,0,1,1,1,0,1],[0,1,0,1,0,1,1,0,1,0,1,0,1,1,1,1,0,0,0,0]],"gridR":[[0,1,0,0,1,0,1,0,0,0,0,1,1,0,0,0,1,1,0,0],[1,1,1,0,0,1,0,1,1,0,0,0,1,1,1,0,0,0,1,1],[0,0,0,1,1,1,1,0,1,0,1,0,1,1,0,1,0,1,0,1],[1,0,1,0,1,0,0,1,0,0,0,1,0,1,1,0,0,1,0,1],[0,0,0,0,0,1,1,0,1,1,0,1,1,1,1,0,1,1,0,1],[0,0,0,0,0,1,0,1,1,0,1,0,1,0,1,1,1,0,1,0],[0,0,0,1,0,1,1,0,0,0,0,0,1,1,0,1,0,0,1,0],[1,1,0,0,0,0,0,1,1,1,1,1,1,0,0,1,0,0,0,0],[1,1,0,1,0,1,1,0,0,0,0,1,0,1,1,0,1,1,0,0],[1,0,1,0,0,0,0,1,1,0,1,0,1,1,0,0,1,0,1,0],[1,1,0,1,0,0,0,1,1,0,1,1,1,0,0,1,1,0,1,0],[0,1,0,0,0,1,1,1,0,0,0,1,0,0,0,0,1,1,1,0],[1,1,1,1,0,1,1,0,1,1,0,0,0,0,1,0,0,1,1,1],[0,1,0,1,1,0,0,0,1,1,0,0,1,1,1,0,0,1,0,0],[1,0,0,0,1,1,1,0,0,1,1,1,1,1,1,1,1,0,0,1],[1,0,1,0,1,1,0,0,1,0,0,1,0,0,1,0,0,1,0,0],[0,1,0,0,1,1,1,1,0,1,0,0,0,0,1,1,0,0,1,0],[0,1,1,0,0,0,0,0,0,0,0,0,0,0,0,0,1,0,0,0],[1,1,0,0,0,1,0,0,0,0,1,0,0,1,1,0,0,0,1,0],[0,0,1,0,1,0,1,1,0,1,1,0,0,0,1,1,0,1,0,0]],"displayWidth":172,"displayHeight":172,"spacing":100,"style":{"gridBorderColor":"#ffffff","gridBorderWidth":"3","dotColor":"#ffffff","dotLineWidth":"1"}},"pluginResponse":[{"startTime":169988.49999997765,"rt":2524.9999999068677,"response":[{"id":0,"name":"Left","answer":100,"prompt":"Left","lastChangedTime":171922.50000033528},{"id":1,"name":"Right","answer":"50","prompt":"Right","lastChangedTime":null}],"stimulusOffTime":902.0000002346933,"trial_type":"canvas-sliders-response","trial_index":59,"time_elapsed":172366,"internal_node_id":"0.0-13.0-0.11"},{"choiceTime":0,"choice":1,"totalTime":2001.9999998621643,"image":"http://localhost:8080/ExploringSocialMetacognition/assets/image/advisor2.png","adviceTime":2001.9999998621643,"trial_type":"jspsych-jas-present-advice-choice","trial_index":60,"time_elapsed":174369,"internal_node_id":"0.0-13.0-1.11"},{"startTime":174517.5000000745,"rt":5072.0000001601875,"response":[{"id":0,"name":"Left","answer":100,"prompt":"Left","lastChangedTime":178665.5000001192},{"id":1,"name":"Right","answer":"50","prompt":"Right","lastChangedTime":175939.50000032783}],"trial_type":"canvas-sliders-response","trial_index":61,"time_elapsed":179444,"internal_node_id":"0.0-13.0-2.11"}],"confidenceCategory":0,"advisorAgrees":false,"advice":{"filePath":"assets/audio/voices/1/think_right.wav","string":"I think it was on the RIGHT","loaded":true,"loading":true,"data":null,"buffer":{},"side":1,"confidence":0}},{"type":1,"typeName":"force","block":3,"advisorId":1,"choice":[],"answer":[0,0],"confidence":[100,100],"whichSide":0,"practice":false,"feedback":false,"warnings":[],"stimulusDrawTime":[196145.50000010058],"stimulusOffTime":[899.9999999068677,null],"fixationDrawTime":[195645.50000010058],"id":20,"dotDifference":15,"grid":{"dotCountL":215,"dotCountR":185,"gridWidth":20,"gridHeight":20,"dotWidth":2,"dotHeight":2,"paddingX":6,"paddingY":6,"gridL":[[1,1,0,0,1,1,0,0,1,1,1,1,1,0,0,0,0,0,0,1],[1,0,0,1,1,0,1,0,0,0,0,0,1,1,0,1,1,1,0,0],[1,0,0,1,1,1,1,1,0,1,1,1,0,1,0,1,1,1,1,0],[0,0,1,0,0,1,0,0,0,1,0,1,1,1,1,0,0,1,1,1],[0,1,0,1,0,0,0,0,1,0,1,0,1,0,0,0,0,1,1,1],[1,1,0,1,0,0,1,0,0,1,0,1,1,1,0,1,0,1,0,1],[0,1,0,1,0,1,1,1,1,1,1,0,1,1,0,1,0,1,0,0],[0,1,1,1,1,1,0,0,1,0,0,1,1,1,0,0,1,0,0,1],[1,1,1,0,1,0,1,0,0,1,0,1,0,0,1,1,0,1,0,0],[0,1,0,1,1,0,1,0,1,0,1,0,1,0,1,1,1,1,1,0],[1,0,1,0,0,1,1,0,1,1,0,1,0,1,1,0,0,1,0,1],[0,1,0,1,0,1,0,0,0,1,1,0,1,1,1,1,1,1,1,0],[1,0,1,1,1,0,0,1,1,0,0,1,1,0,1,0,1,1,1,0],[0,1,0,0,1,1,0,1,1,1,0,1,1,1,1,1,1,1,0,1],[0,1,0,1,0,0,1,0,1,0,0,0,1,0,0,1,1,0,0,0],[1,0,1,0,1,1,1,1,0,0,1,1,0,1,1,0,0,1,0,1],[0,0,1,1,0,0,0,0,1,0,0,0,0,1,1,1,1,1,0,0],[1,1,1,1,0,1,1,1,0,1,0,0,1,0,1,1,0,1,0,1],[0,0,0,0,1,1,0,0,1,0,0,0,1,1,1,0,1,0,1,1],[0,0,1,1,0,1,1,1,1,0,1,0,0,1,1,0,0,0,0,1]],"gridR":[[0,0,1,0,1,1,1,0,0,1,1,0,0,0,0,1,1,0,1,0],[1,0,0,1,0,1,1,1,0,1,0,1,1,1,0,1,0,1,1,1],[1,0,1,1,0,0,0,0,0,0,1,0,0,0,0,1,0,0,0,0],[1,0,1,1,1,1,1,0,1,1,0,0,1,0,1,1,0,1,0,1],[1,0,0,1,1,0,1,0,0,0,0,1,0,0,1,0,1,1,0,0],[0,1,0,0,0,0,0,0,0,0,1,1,0,0,1,0,0,1,1,0],[0,1,1,1,1,0,1,0,1,0,1,0,0,1,0,0,1,1,1,1],[1,1,0,1,0,1,0,0,0,1,0,1,1,1,0,1,1,1,1,1],[0,1,1,1,1,0,0,0,0,1,1,1,1,1,0,0,0,0,1,1],[0,0,1,1,0,0,0,0,1,0,1,0,1,0,1,0,0,1,0,0],[0,1,1,1,1,0,1,0,0,0,1,0,1,1,0,1,0,0,0,1],[1,0,0,0,1,0,0,1,0,0,0,0,0,1,0,1,0,0,0,1],[0,1,0,0,0,0,1,1,0,1,1,0,0,0,0,0,1,0,1,1],[0,1,1,0,1,0,1,1,1,0,1,0,0,0,1,0,0,0,0,1],[0,0,0,0,1,1,0,1,0,1,0,0,0,1,1,1,1,1,0,0],[1,0,0,1,1,0,0,0,1,1,0,0,1,0,1,0,0,0,0,1],[1,1,1,1,1,0,1,0,0,0,1,0,1,0,1,1,1,1,0,0],[1,0,0,0,0,0,1,1,0,0,0,0,1,0,1,0,1,0,1,1],[1,0,1,0,0,0,0,0,0,1,0,1,0,0,1,1,0,0,0,0],[1,1,1,1,1,1,1,0,0,1,0,1,0,0,0,0,0,1,1,1]],"displayWidth":172,"displayHeight":172,"spacing":100,"style":{"gridBorderColor":"#ffffff","gridBorderWidth":"3","dotColor":"#ffffff","dotLineWidth":"1"}},"pluginResponse":[{"startTime":195444.50000021607,"rt":3711.9999998249114,"response":[{"id":0,"name":"Left","answer":100,"prompt":"Left","lastChangedTime":198617.50000016764},{"id":1,"name":"Right","answer":"50","prompt":"Right","lastChangedTime":null}],"stimulusOffTime":899.9999999068677,"trial_type":"canvas-sliders-response","trial_index":63,"time_elapsed":199010,"internal_node_id":"0.0-15.0-0.0"},{"choiceTime":0,"choice":1,"totalTime":2001.9999998621643,"image":"http://localhost:8080/ExploringSocialMetacognition/assets/image/advisor2.png","adviceTime":2001.9999998621643,"trial_type":"jspsych-jas-present-advice-choice","trial_index":64,"time_elapsed":201012,"internal_node_id":"0.0-15.0-1.0"},{"startTime":201160.50000023097,"rt":1682.9999997280538,"response":[{"id":0,"name":"Left","answer":100,"prompt":"Left","lastChangedTime":202350.5000001751},{"id":1,"name":"Right","answer":"50","prompt":"Right","lastChangedTime":null}],"trial_type":"canvas-sliders-response","trial_index":65,"time_elapsed":202698,"internal_node_id":"0.0-15.0-2.0"}],"confidenceCategory":0,"advisorAgrees":true,"advice":{"filePath":"assets/audio/voices/1/think_left.wav","string":"I think it was on the LEFT","loaded":true,"loading":true,"data":null,"buffer":{},"side":0,"confidence":0}},{"type":1,"typeName":"force","block":3,"advisorId":1,"choice":[],"answer":[0,0],"confidence":[100,100],"whichSide":0,"practice":false,"feedback":false,"warnings":[],"stimulusDrawTime":[203745.50000019372],"stimulusOffTime":[899.9999999068677,null],"fixationDrawTime":[203246.49999989197],"id":21,"dotDifference":12,"grid":{"dotCountL":212,"dotCountR":188,"gridWidth":20,"gridHeight":20,"dotWidth":2,"dotHeight":2,"paddingX":6,"paddingY":6,"gridL":[[1,1,0,1,1,1,1,1,0,0,0,0,1,1,1,0,0,0,0,1],[0,1,0,1,1,1,0,1,0,0,0,0,1,1,0,1,0,1,0,1],[1,0,0,0,1,1,1,1,0,0,1,0,1,0,0,1,0,0,0,0],[0,1,1,1,1,1,1,1,0,1,1,1,1,0,0,0,1,1,0,0],[0,1,1,0,1,0,1,1,0,0,1,0,0,1,1,1,1,1,0,0],[0,0,0,1,1,1,0,0,0,1,0,1,1,1,1,0,1,1,1,1],[1,0,1,1,1,0,1,0,1,0,0,1,0,1,0,0,0,1,1,1],[0,0,0,1,0,1,1,0,1,1,0,1,1,0,1,1,0,1,0,0],[1,1,1,1,0,1,0,1,0,1,1,1,0,1,1,1,1,0,1,0],[1,0,0,0,0,0,0,0,1,1,0,1,1,1,1,0,1,0,1,1],[0,1,1,0,0,1,1,1,0,0,1,0,0,0,0,0,0,1,0,0],[1,0,1,0,0,1,1,0,1,1,0,0,0,0,1,1,0,1,1,1],[1,0,1,0,1,1,0,0,1,0,0,1,1,0,1,0,1,1,0,1],[1,1,0,1,0,0,0,1,1,0,1,0,0,1,1,1,0,1,1,0],[1,0,0,1,0,0,0,0,1,0,0,1,0,0,1,0,0,1,1,0],[0,1,1,0,0,1,1,1,0,1,1,1,1,1,0,1,0,1,0,1],[0,0,1,0,1,0,1,1,0,1,0,1,0,0,0,1,0,1,0,0],[0,0,0,1,1,1,1,0,1,0,1,1,0,1,1,1,1,0,1,0],[1,1,1,0,0,1,0,0,1,1,0,1,1,0,1,1,1,1,1,0],[0,0,1,0,0,1,1,0,0,1,1,0,1,1,0,0,1,1,0,0]],"gridR":[[1,0,0,0,0,1,0,1,1,1,1,1,0,1,0,0,1,1,0,1],[0,1,1,0,1,0,0,0,0,1,1,0,0,1,1,0,1,0,0,0],[0,1,1,1,0,0,0,0,0,1,0,1,1,1,1,0,0,1,1,0],[1,0,0,0,1,0,0,0,0,0,0,0,0,1,0,0,0,0,1,0],[0,0,1,0,0,1,1,0,1,1,1,0,0,1,1,0,1,1,1,0],[0,1,1,0,0,0,0,0,0,0,1,0,0,1,0,1,0,0,1,0],[1,1,0,1,0,0,0,1,0,0,1,1,1,0,1,1,1,0,1,1],[1,0,0,0,1,0,0,0,0,1,1,1,1,0,1,1,1,0,1,0],[0,1,0,1,1,0,0,1,1,0,0,0,1,1,0,1,1,1,1,0],[1,0,0,0,1,0,0,1,1,1,0,1,1,0,0,1,0,0,1,1],[0,1,1,0,0,1,1,0,1,0,1,0,0,1,1,1,0,0,1,1],[0,1,0,1,1,0,1,0,1,1,0,0,0,0,1,1,1,1,1,1],[1,0,0,1,1,1,0,0,1,1,1,1,1,0,0,0,1,1,0,1],[1,1,1,0,0,1,0,0,0,1,0,0,1,0,0,0,1,0,0,1],[0,1,0,0,0,0,0,0,1,0,1,0,0,0,0,0,0,0,0,0],[1,1,1,0,0,0,1,0,1,1,1,0,1,0,0,1,1,0,0,0],[0,0,0,0,0,0,0,1,1,1,0,1,1,1,0,0,0,0,0,1],[1,0,1,1,0,1,0,1,1,1,0,1,0,1,0,1,0,0,0,1],[0,1,0,1,1,0,0,0,1,0,1,1,1,1,0,1,1,1,1,0],[0,1,1,1,0,0,1,0,1,0,1,0,0,0,1,0,1,0,1,0]],"displayWidth":172,"displayHeight":172,"spacing":100,"style":{"gridBorderColor":"#ffffff","gridBorderWidth":"3","dotColor":"#ffffff","dotLineWidth":"1"}},"pluginResponse":[{"startTime":203045.50000000745,"rt":2486.0000000335276,"response":[{"id":0,"name":"Left","answer":100,"prompt":"Left","lastChangedTime":204884.5000001602},{"id":1,"name":"Right","answer":"50","prompt":"Right","lastChangedTime":null}],"stimulusOffTime":899.9999999068677,"trial_type":"canvas-sliders-response","trial_index":66,"time_elapsed":205386,"internal_node_id":"0.0-15.0-0.1"},{"choiceTime":0,"choice":1,"totalTime":2001.9999998621643,"image":"http://localhost:8080/ExploringSocialMetacognition/assets/image/advisor2.png","adviceTime":2001.9999998621643,"trial_type":"jspsych-jas-present-advice-choice","trial_index":67,"time_elapsed":207388,"internal_node_id":"0.0-15.0-1.1"},{"startTime":207534.50000006706,"rt":1527.0000002346933,"response":[{"id":0,"name":"Left","answer":100,"prompt":"Left","lastChangedTime":208574.5000001043},{"id":1,"name":"Right","answer":"50","prompt":"Right","lastChangedTime":null}],"trial_type":"canvas-sliders-response","trial_index":68,"time_elapsed":208916,"internal_node_id":"0.0-15.0-2.1"}],"confidenceCategory":0,"advisorAgrees":false,"advice":{"filePath":"assets/audio/voices/1/right_think.wav","string":"It was on the RIGHT, I think","loaded":true,"loading":true,"data":null,"buffer":{},"side":1,"confidence":0}},{"type":2,"typeName":"choice","block":3,"advisorId":1,"choice":[2,1],"answer":[0,0],"confidence":[100,100],"whichSide":0,"practice":false,"feedback":false,"warnings":[],"stimulusDrawTime":[209964.5000002347],"stimulusOffTime":[899.9999999068677,null],"fixationDrawTime":[209464.5000002347],"id":22,"dotDifference":9,"grid":{"dotCountL":209,"dotCountR":191,"gridWidth":20,"gridHeight":20,"dotWidth":2,"dotHeight":2,"paddingX":6,"paddingY":6,"gridL":[[0,0,1,0,0,0,0,1,1,0,1,1,1,0,0,1,0,0,1,0],[1,0,0,0,0,1,0,1,1,0,1,1,1,1,1,0,0,1,0,0],[0,1,1,1,0,1,0,0,0,0,1,0,0,0,0,1,0,1,1,1],[0,0,1,0,0,1,0,1,1,1,1,0,1,1,1,1,0,0,1,0],[0,1,1,1,1,0,1,0,0,0,1,0,0,1,1,0,1,0,1,1],[1,1,0,0,1,1,0,1,1,1,0,1,1,1,0,0,0,0,0,1],[1,0,1,1,1,1,1,1,0,0,1,1,0,1,0,0,1,0,0,1],[0,1,1,1,1,1,0,0,1,0,0,1,0,1,0,1,0,0,1,0],[0,0,0,0,0,0,1,1,0,1,1,0,0,0,1,1,1,0,0,1],[0,0,0,0,0,1,1,1,0,1,1,0,1,1,0,1,1,0,1,0],[0,0,0,1,0,0,0,1,1,0,1,1,1,1,1,0,1,1,1,0],[0,1,0,1,1,1,0,0,0,1,1,1,1,1,1,1,0,0,1,0],[1,0,0,0,0,1,0,1,0,0,1,1,0,0,0,0,1,1,1,0],[1,1,0,1,1,1,0,0,0,0,1,1,0,0,1,1,0,1,1,1],[1,1,1,0,1,0,0,0,1,0,1,1,1,1,0,1,1,1,1,0],[0,0,1,1,1,1,0,0,1,1,1,1,1,1,1,0,1,0,0,1],[1,0,0,0,0,0,1,0,0,0,0,1,0,1,1,1,0,1,1,1],[1,1,1,1,0,0,0,1,1,1,0,1,1,1,1,0,0,0,0,1],[0,1,0,0,1,0,1,1,1,1,0,1,0,1,0,0,0,1,0,1],[0,0,1,1,0,1,1,0,1,0,0,1,1,0,0,0,0,1,0,1]],"gridR":[[0,1,0,1,1,0,1,1,0,1,0,1,1,0,0,0,0,1,0,1],[0,0,0,0,1,1,1,1,1,0,0,0,0,0,0,1,1,1,1,0],[0,1,0,1,1,0,0,1,0,0,1,1,1,0,1,0,1,0,0,0],[0,1,1,0,1,1,1,0,0,1,0,0,0,0,0,0,0,1,0,0],[0,1,1,0,0,1,1,1,0,0,0,1,0,1,1,1,1,1,0,1],[1,0,1,1,1,0,1,1,0,0,1,1,0,0,1,1,1,1,1,0],[0,0,0,1,0,1,1,0,0,1,0,0,0,1,0,0,1,0,1,0],[0,1,1,0,0,1,0,1,1,1,1,1,1,1,0,0,0,1,1,1],[0,0,1,0,1,1,1,0,0,0,1,0,1,0,0,0,0,0,1,0],[0,0,1,0,0,1,0,0,1,0,0,0,0,0,0,0,1,0,0,1],[1,0,0,0,1,1,0,1,1,1,1,1,0,1,1,1,0,0,1,0],[0,1,1,0,1,1,0,1,1,1,0,1,0,1,1,0,0,1,0,0],[0,0,1,0,0,1,1,0,0,1,0,1,1,0,1,0,0,0,1,1],[1,0,0,1,0,1,0,0,0,0,0,1,1,1,1,0,0,1,0,0],[1,1,1,1,1,0,0,1,1,1,1,1,1,1,1,0,0,0,0,0],[1,0,1,0,1,1,0,0,0,0,1,1,0,0,1,1,0,0,0,0],[1,1,0,1,1,0,0,1,0,0,0,1,1,0,1,1,1,0,1,0],[0,0,1,1,1,0,0,1,0,1,1,1,1,0,1,0,0,0,0,1],[1,1,1,1,0,1,0,0,0,0,0,1,1,1,0,0,0,1,0,0],[1,0,1,0,0,0,0,1,0,1,1,0,1,0,0,0,1,0,0,1]],"displayWidth":172,"displayHeight":172,"spacing":100,"style":{"gridBorderColor":"#ffffff","gridBorderWidth":"3","dotColor":"#ffffff","dotLineWidth":"1"}},"pluginResponse":[{"startTime":209264.50000004843,"rt":3479.9999999813735,"response":[{"id":0,"name":"Left","answer":100,"prompt":"Left","lastChangedTime":212059.49999997392},{"id":1,"name":"Right","answer":"50","prompt":"Right","lastChangedTime":null}],"stimulusOffTime":899.9999999068677,"trial_type":"canvas-sliders-response","trial_index":69,"time_elapsed":212599,"internal_node_id":"0.0-15.0-0.2"},{"choiceTime":1001.9999998621643,"choice":1,"totalTime":3003.9999997243285,"image":"http://localhost:8080/ExploringSocialMetacognition/assets/image/advisor2.png","adviceTime":2001.9999998621643,"trial_type":"jspsych-jas-present-advice-choice","trial_index":70,"time_elapsed":215602,"internal_node_id":"0.0-15.0-1.2"},{"startTime":215750.50000008196,"rt":2348.000000230968,"response":[{"id":0,"name":"Left","answer":100,"prompt":"Left","lastChangedTime":217249.49999991804},{"id":1,"name":"Right","answer":"50","prompt":"Right","lastChangedTime":null}],"trial_type":"canvas-sliders-response","trial_index":71,"time_elapsed":217952,"internal_node_id":"0.0-15.0-2.2"}],"confidenceCategory":0,"advisorAgrees":true,"advice":{"filePath":"assets/audio/voices/1/think_left.wav","string":"I think it was on the LEFT","loaded":true,"loading":true,"data":null,"buffer":{},"side":0,"confidence":0}},{"type":2,"typeName":"choice","block":3,"advisorId":1,"choice":[2,1],"answer":[1,1],"confidence":[100,100],"whichSide":0,"practice":false,"feedback":false,"warnings":[],"stimulusDrawTime":[219000.50000008196],"stimulusOffTime":[900.000000372529,null],"fixationDrawTime":[218500.50000008196],"id":23,"dotDifference":6,"grid":{"dotCountL":206,"dotCountR":194,"gridWidth":20,"gridHeight":20,"dotWidth":2,"dotHeight":2,"paddingX":6,"paddingY":6,"gridL":[[0,1,0,1,1,1,1,0,0,0,1,1,1,0,0,0,1,0,1,0],[0,1,1,0,1,1,1,1,1,0,1,0,1,0,0,0,0,0,0,0],[1,1,1,1,1,0,1,1,1,1,1,0,1,1,1,0,1,0,1,0],[1,1,1,1,0,1,0,1,1,1,1,1,0,0,0,0,1,1,0,0],[0,0,1,1,0,1,0,1,1,1,0,1,0,1,0,0,1,1,1,0],[0,0,1,0,0,1,0,1,1,0,1,0,1,1,0,1,0,1,1,1],[1,1,1,1,1,0,0,0,1,0,1,0,0,0,1,1,0,1,0,1],[0,0,0,1,1,0,1,0,1,1,1,0,1,0,0,0,1,0,0,1],[1,1,1,0,0,0,0,0,1,1,1,1,1,1,1,0,1,0,0,0],[1,0,0,0,0,0,0,1,1,1,0,0,1,1,0,0,0,0,1,0],[1,0,1,1,0,1,0,1,1,0,0,0,1,0,1,1,0,1,1,0],[1,1,1,1,1,0,1,0,0,1,0,1,0,1,0,0,1,1,0,1],[0,1,1,0,0,1,1,1,1,0,0,1,0,1,0,0,0,0,0,0],[1,1,0,0,0,0,0,0,0,0,1,0,1,1,0,0,0,1,1,1],[1,0,1,1,1,1,1,1,0,1,1,0,0,1,0,1,0,1,0,1],[1,1,1,1,1,0,1,1,0,0,0,0,1,0,1,1,0,0,1,0],[1,1,1,1,0,1,1,0,0,0,1,0,0,0,1,1,1,0,0,0],[0,1,0,0,0,0,0,1,0,0,0,1,1,0,0,0,0,0,1,1],[0,1,1,0,1,0,1,1,0,1,1,0,1,0,1,0,1,0,1,0],[0,1,0,0,0,1,1,1,0,0,0,0,1,1,1,1,1,0,1,0]],"gridR":[[0,0,0,0,1,0,1,0,0,1,0,0,1,1,1,1,0,1,0,1],[1,1,0,0,0,1,0,0,1,1,0,0,0,0,0,1,0,1,1,1],[0,0,1,0,0,0,0,0,1,0,1,0,0,1,1,0,0,1,1,1],[1,0,0,0,1,0,0,1,1,1,0,0,0,0,0,1,0,0,1,1],[0,1,0,0,1,0,0,1,0,0,1,1,0,0,0,1,1,0,1,1],[0,1,0,0,0,1,1,0,0,1,0,0,1,0,0,0,1,0,0,0],[0,0,0,0,1,1,0,1,1,1,0,0,1,0,0,0,1,0,1,0],[1,0,1,0,1,1,1,1,0,0,1,0,0,0,0,0,1,1,1,1],[0,1,1,0,0,1,1,0,1,1,0,0,1,1,1,0,0,1,1,1],[1,1,0,1,0,0,1,0,1,1,1,0,0,0,0,0,0,0,0,1],[1,0,1,0,0,1,1,0,0,0,1,1,0,1,1,1,1,0,0,1],[1,1,0,1,1,1,1,0,1,0,1,1,1,1,0,0,0,1,1,0],[0,0,1,0,1,0,1,1,0,1,0,1,1,1,0,1,0,1,1,0],[1,0,0,1,0,0,0,1,0,1,1,0,1,1,0,1,1,0,1,0],[1,0,0,0,1,1,0,1,1,1,1,1,1,0,0,0,0,1,0,1],[0,0,1,1,1,0,0,1,1,1,0,1,0,1,0,0,1,1,1,0],[1,0,0,0,1,0,0,0,1,0,0,0,1,0,1,1,1,1,1,1],[1,1,0,1,1,1,1,0,0,1,1,1,0,0,1,1,1,0,1,1],[0,0,0,0,0,0,0,1,1,0,0,0,0,0,0,1,1,0,1,0],[1,0,1,1,0,0,1,1,1,0,1,1,0,0,0,1,1,0,0,0]],"displayWidth":172,"displayHeight":172,"spacing":100,"style":{"gridBorderColor":"#ffffff","gridBorderWidth":"3","dotColor":"#ffffff","dotLineWidth":"1"}},"pluginResponse":[{"startTime":218300.4999998957,"rt":3568.000000435859,"response":[{"id":0,"name":"Left","answer":50,"prompt":"Left","lastChangedTime":null},{"id":1,"name":"Right","answer":"100","prompt":"Right","lastChangedTime":221207.50000001863}],"stimulusOffTime":900.000000372529,"trial_type":"canvas-sliders-response","trial_index":72,"time_elapsed":221721,"internal_node_id":"0.0-15.0-0.3"},{"choiceTime":961.0000001266599,"choice":1,"totalTime":2962.999999988824,"image":"http://localhost:8080/ExploringSocialMetacognition/assets/image/advisor2.png","adviceTime":2001.9999998621643,"trial_type":"jspsych-jas-present-advice-choice","trial_index":73,"time_elapsed":224685,"internal_node_id":"0.0-15.0-1.3"},{"startTime":224833.50000018254,"rt":1396.9999998807907,"response":[{"id":0,"name":"Left","answer":50,"prompt":"Left","lastChangedTime":null},{"id":1,"name":"Right","answer":"100","prompt":"Right","lastChangedTime":225706.50000032037}],"trial_type":"canvas-sliders-response","trial_index":74,"time_elapsed":226084,"internal_node_id":"0.0-15.0-2.3"}],"confidenceCategory":0,"advisorAgrees":false,"advice":{"filePath":"assets/audio/voices/1/think_right.wav","string":"I think it was on the RIGHT","loaded":true,"loading":true,"data":null,"buffer":{},"side":1,"confidence":0}},{"type":1,"typeName":"force","block":3,"advisorId":1,"choice":[],"answer":[1,1],"confidence":[52,53],"whichSide":1,"practice":false,"feedback":false,"warnings":[],"stimulusDrawTime":[227132.50000029802],"stimulusOffTime":[899.9999999068677,null],"fixationDrawTime":[226633.49999999627],"id":24,"dotDifference":9,"grid":{"dotCountL":191,"dotCountR":209,"gridWidth":20,"gridHeight":20,"dotWidth":2,"dotHeight":2,"paddingX":6,"paddingY":6,"gridL":[[1,0,1,0,0,1,0,0,0,0,1,1,1,1,0,1,1,0,1,0],[0,0,0,1,1,1,0,1,1,0,1,1,1,0,0,0,0,0,0,0],[1,1,1,1,0,1,1,0,0,0,1,1,1,0,0,0,0,1,0,1],[0,1,1,1,0,0,0,1,1,0,0,1,1,1,0,0,1,1,1,0],[0,1,0,1,1,1,0,0,0,0,1,0,0,0,1,0,1,1,1,0],[1,0,0,1,1,0,1,1,1,0,1,1,1,0,0,1,1,1,0,0],[0,0,1,0,1,1,0,0,1,1,0,0,0,0,1,0,0,0,0,0],[1,1,0,0,1,1,0,1,0,1,1,1,0,1,1,0,1,1,0,0],[0,0,0,0,0,1,0,0,0,1,0,0,1,0,0,1,1,1,0,0],[1,0,1,0,1,1,0,1,0,1,0,1,1,0,1,1,0,1,0,1],[0,1,1,0,0,1,0,1,0,1,1,0,0,0,1,1,1,0,1,0],[1,1,0,1,0,1,0,1,0,1,1,1,1,1,0,0,1,1,0,1],[1,1,1,0,1,1,0,0,0,1,1,0,0,0,0,1,0,1,1,0],[1,0,1,0,0,1,0,0,0,0,0,0,1,1,0,0,1,0,0,1],[0,0,0,0,0,1,0,0,0,0,1,0,0,0,1,0,1,0,1,0],[0,1,1,0,1,1,0,0,1,1,0,0,1,0,1,1,0,0,1,0],[1,1,1,0,0,1,0,0,1,0,0,1,1,1,1,1,1,0,1,1],[0,1,0,0,0,0,1,1,0,1,1,1,0,1,0,1,0,1,0,1],[1,0,1,0,1,1,0,0,1,0,0,1,1,1,1,0,0,0,1,1],[1,0,0,0,0,1,0,0,1,0,1,0,0,0,0,1,0,0,0,0]],"gridR":[[0,1,0,1,0,0,0,1,1,1,0,0,1,0,1,0,0,1,1,0],[1,0,1,1,0,0,0,1,0,1,1,1,0,0,1,0,1,1,0,0],[0,1,0,1,0,1,1,0,1,1,0,0,1,1,1,1,1,1,0,0],[1,1,0,0,0,0,1,0,1,1,0,1,0,0,1,1,1,1,0,0],[0,0,0,0,0,1,0,1,0,1,0,1,1,1,0,1,1,0,1,1],[0,1,1,1,1,1,1,1,1,0,0,0,0,0,1,1,0,1,0,0],[1,0,0,1,0,0,1,0,1,1,0,1,1,1,1,0,0,0,1,0],[1,0,1,0,1,1,0,1,1,0,0,0,1,1,1,0,0,1,0,1],[0,0,0,0,0,0,0,0,1,1,0,0,1,0,0,0,0,1,1,1],[1,0,1,0,1,0,0,0,0,1,0,1,1,1,1,1,1,1,1,0],[1,1,0,1,1,0,0,1,1,0,0,0,0,1,1,0,0,0,1,0],[0,1,0,0,1,1,0,1,1,1,0,1,1,1,1,1,0,1,1,1],[1,0,1,0,1,1,1,0,1,0,1,1,1,0,1,0,1,1,1,1],[0,0,1,0,1,1,0,0,0,0,1,0,1,1,1,1,0,1,0,0],[1,1,0,1,0,0,0,0,0,0,1,1,0,1,1,0,0,0,1,0],[0,1,1,1,0,1,0,1,0,0,1,0,1,0,0,0,0,1,1,0],[0,0,0,0,0,1,0,1,1,0,0,0,1,1,0,1,1,1,0,1],[0,0,1,1,1,1,1,1,1,1,0,0,0,1,1,0,0,1,0,0],[1,0,1,0,1,1,1,1,0,0,0,0,0,1,1,0,1,1,1,1],[1,1,0,1,0,1,1,0,1,1,1,1,1,0,0,1,1,1,0,0]],"displayWidth":172,"displayHeight":172,"spacing":100,"style":{"gridBorderColor":"#ffffff","gridBorderWidth":"3","dotColor":"#ffffff","dotLineWidth":"1"}},"pluginResponse":[{"startTime":226432.50000011176,"rt":2638.9999999664724,"response":[{"id":0,"name":"Left","answer":50,"prompt":"Left","lastChangedTime":null},{"id":1,"name":"Right","answer":"52","prompt":"Right","lastChangedTime":228346.4999999851}],"stimulusOffTime":899.9999999068677,"trial_type":"canvas-sliders-response","trial_index":75,"time_elapsed":228924,"internal_node_id":"0.0-15.0-0.4"},{"choiceTime":0,"choice":1,"totalTime":2002.0000003278255,"image":"http://localhost:8080/ExploringSocialMetacognition/assets/image/advisor2.png","adviceTime":2002.0000003278255,"trial_type":"jspsych-jas-present-advice-choice","trial_index":76,"time_elapsed":230928,"internal_node_id":"0.0-15.0-1.4"},{"startTime":231076.49999996647,"rt":1489.0000000596046,"response":[{"id":0,"name":"Left","answer":50,"prompt":"Left","lastChangedTime":null},{"id":1,"name":"Right","answer":"53","prompt":"Right","lastChangedTime":231828.5000002943}],"trial_type":"canvas-sliders-response","trial_index":77,"time_elapsed":232419,"internal_node_id":"0.0-15.0-2.4"}],"confidenceCategory":0,"advisorAgrees":true,"advice":{"filePath":"assets/audio/voices/1/think_right.wav","string":"I think it was on the RIGHT","loaded":true,"loading":true,"data":null,"buffer":{},"side":1,"confidence":0}},{"type":1,"typeName":"force","block":3,"advisorId":1,"choice":[],"answer":[0,0],"confidence":[94,100],"whichSide":0,"practice":false,"feedback":false,"warnings":[],"stimulusDrawTime":[233467.50000026077],"stimulusOffTime":[899.9999999068677,null],"fixationDrawTime":[232968.49999995902],"id":25,"dotDifference":9,"grid":{"dotCountL":209,"dotCountR":191,"gridWidth":20,"gridHeight":20,"dotWidth":2,"dotHeight":2,"paddingX":6,"paddingY":6,"gridL":[[1,1,0,0,0,0,0,1,1,1,1,1,0,1,1,1,1,0,0,1],[0,1,0,1,0,0,1,1,0,1,1,0,0,1,1,1,1,1,1,1],[1,1,0,1,1,0,1,1,0,0,0,1,1,0,1,1,1,1,1,0],[0,0,0,1,0,0,1,1,0,1,1,1,1,0,0,0,0,1,1,0],[0,1,1,0,1,0,1,1,1,1,0,1,1,0,0,0,1,1,0,1],[1,0,1,0,0,1,0,1,0,1,1,1,0,0,1,1,1,0,1,1],[1,0,1,0,0,0,0,0,1,1,0,1,0,1,1,0,1,1,1,1],[1,1,1,1,0,1,1,0,1,0,1,0,0,1,1,0,0,0,1,1],[0,1,0,0,1,0,1,0,1,1,1,0,0,0,0,0,1,0,1,1],[1,1,1,0,0,1,1,0,1,0,1,0,1,0,1,1,1,0,0,1],[1,0,0,1,1,1,0,1,1,1,0,0,1,0,1,1,0,0,0,1],[0,0,0,0,0,1,0,1,0,0,1,0,1,0,0,0,1,0,1,1],[0,1,0,0,0,0,0,0,0,1,1,1,1,0,0,0,1,0,1,0],[1,1,0,1,0,0,1,1,1,0,1,0,0,1,1,0,0,1,0,1],[1,1,0,0,1,0,1,1,0,0,1,1,1,0,1,1,1,1,0,1],[1,0,0,0,0,0,0,0,0,1,1,1,0,0,1,1,1,0,1,1],[1,0,1,1,1,1,0,0,0,0,1,1,0,1,0,0,1,0,1,0],[0,1,0,0,1,0,1,0,1,1,0,1,0,0,0,0,1,0,1,0],[1,0,1,0,0,1,0,0,1,0,1,1,0,0,1,0,0,0,1,0],[0,0,1,0,0,1,1,1,0,1,0,0,0,1,1,1,1,0,0,1]],"gridR":[[1,0,1,0,0,0,1,0,1,1,0,1,0,0,1,1,1,1,0,1],[0,0,0,1,0,0,1,0,0,0,0,1,1,0,0,0,0,0,0,1],[0,0,1,0,0,1,0,0,1,0,1,1,0,1,0,1,0,0,0,0],[0,1,0,1,1,0,0,1,1,0,1,0,0,0,1,1,1,1,0,0],[0,1,1,1,0,1,1,0,1,0,0,1,1,1,0,1,0,1,0,1],[1,0,0,0,1,1,1,0,1,1,1,1,0,0,0,1,1,0,1,0],[0,0,0,0,0,1,0,0,1,1,0,0,0,0,0,1,1,1,0,1],[1,1,0,1,1,0,1,0,1,1,0,1,1,0,0,0,0,0,0,0],[0,1,1,0,0,1,1,0,0,0,0,0,0,1,0,1,1,0,0,1],[0,0,1,0,0,0,0,0,1,1,0,1,0,1,0,1,0,1,0,1],[0,1,0,1,1,0,1,0,1,0,1,0,0,0,1,0,1,0,1,1],[1,1,1,1,1,0,0,0,1,0,0,0,0,1,1,1,1,1,1,0],[0,0,1,0,1,1,0,0,1,1,0,1,1,0,0,1,1,1,1,0],[0,1,0,0,0,0,1,0,0,1,1,0,1,0,1,1,1,0,1,0],[1,1,1,0,0,1,1,1,1,0,1,0,1,1,1,0,1,0,0,0],[0,1,0,0,0,0,1,0,1,0,1,0,0,0,1,1,1,0,1,1],[1,1,1,0,0,1,1,0,1,0,1,1,1,0,0,0,1,1,1,0],[0,0,0,0,1,1,1,1,0,1,1,0,0,1,0,1,1,1,0,1],[0,1,0,0,0,0,1,0,1,0,1,1,1,1,0,1,1,0,0,0],[0,0,1,0,1,1,0,1,0,0,0,0,0,0,1,1,0,0,1,1]],"displayWidth":172,"displayHeight":172,"spacing":100,"style":{"gridBorderColor":"#ffffff","gridBorderWidth":"3","dotColor":"#ffffff","dotLineWidth":"1"}},"pluginResponse":[{"startTime":232767.5000000745,"rt":2709.999999962747,"response":[{"id":0,"name":"Left","answer":94,"prompt":"Left","lastChangedTime":234830.50000015646},{"id":1,"name":"Right","answer":"50","prompt":"Right","lastChangedTime":null}],"stimulusOffTime":899.9999999068677,"trial_type":"canvas-sliders-response","trial_index":78,"time_elapsed":235331,"internal_node_id":"0.0-15.0-0.5"},{"choiceTime":0,"choice":1,"totalTime":2001.9999998621643,"image":"http://localhost:8080/ExploringSocialMetacognition/assets/image/advisor2.png","adviceTime":2001.9999998621643,"trial_type":"jspsych-jas-present-advice-choice","trial_index":79,"time_elapsed":237333,"internal_node_id":"0.0-15.0-1.5"},{"startTime":237481.50000022724,"rt":1811.9999999180436,"response":[{"id":0,"name":"Left","answer":100,"prompt":"Left","lastChangedTime":238588.50000007078},{"id":1,"name":"Right","answer":"50","prompt":"Right","lastChangedTime":null}],"trial_type":"canvas-sliders-response","trial_index":80,"time_elapsed":239147,"internal_node_id":"0.0-15.0-2.5"}],"confidenceCategory":0,"advisorAgrees":true,"advice":{"filePath":"assets/audio/voices/1/think_left.wav","string":"I think it was on the LEFT","loaded":true,"loading":true,"data":null,"buffer":{},"side":0,"confidence":0}},{"type":2,"typeName":"choice","block":3,"advisorId":1,"choice":[1,2],"answer":[0,0],"confidence":[96,100],"whichSide":0,"practice":false,"feedback":false,"warnings":[],"stimulusDrawTime":[240195.49999991432],"stimulusOffTime":[899.9999999068677,null],"fixationDrawTime":[239695.49999991432],"id":26,"dotDifference":6,"grid":{"dotCountL":206,"dotCountR":194,"gridWidth":20,"gridHeight":20,"dotWidth":2,"dotHeight":2,"paddingX":6,"paddingY":6,"gridL":[[0,1,0,1,0,0,0,1,0,1,0,1,0,0,1,1,1,0,1,1],[0,1,0,0,0,1,1,0,0,1,1,1,0,1,1,1,1,0,1,1],[0,0,0,1,1,1,1,0,0,0,0,0,1,1,1,1,0,0,0,1],[0,0,1,1,0,0,1,1,0,0,0,0,1,0,1,1,0,1,0,1],[0,1,1,1,0,0,0,0,1,1,1,0,0,0,0,1,0,0,0,1],[1,1,1,1,0,1,1,0,1,0,0,1,1,0,0,1,0,0,1,1],[0,1,1,0,0,1,0,0,0,1,0,1,1,0,0,1,1,1,0,0],[0,1,1,1,1,0,0,0,0,1,1,1,1,0,0,0,0,1,0,1],[0,0,1,1,1,0,1,1,0,0,0,1,1,0,1,1,1,1,1,0],[0,0,0,0,1,1,0,0,0,1,0,0,0,1,0,1,1,1,0,0],[1,1,1,0,1,0,1,0,1,0,1,1,1,1,1,0,1,0,0,1],[1,0,0,0,1,0,1,0,1,0,1,1,1,1,1,0,0,0,0,1],[0,0,1,1,0,0,0,0,0,0,1,0,1,1,1,0,0,0,0,0],[1,0,1,1,0,0,0,1,0,0,1,1,0,0,1,0,1,0,0,0],[1,1,0,1,1,1,1,0,1,1,1,1,1,1,1,1,0,0,1,0],[0,1,1,1,1,1,0,1,0,1,1,0,0,0,1,0,1,1,1,0],[0,1,1,0,0,1,0,1,1,0,0,0,0,0,1,1,1,1,0,1],[0,1,0,0,1,0,0,1,0,1,0,0,1,0,0,1,1,1,1,1],[1,1,0,0,1,1,1,0,0,0,0,1,1,1,0,1,1,1,1,1],[1,0,0,0,1,0,0,1,0,1,0,1,1,1,1,1,0,1,1,0]],"gridR":[[0,1,1,0,1,1,0,0,1,1,1,1,1,0,0,0,1,0,1,1],[0,1,1,0,0,1,1,0,1,1,1,0,1,1,0,0,0,0,1,1],[1,1,0,0,0,1,1,1,1,1,0,0,0,0,0,0,0,0,1,1],[1,0,1,0,0,0,0,0,1,0,1,1,1,0,0,0,1,1,0,1],[0,0,1,1,1,1,0,1,0,0,1,1,1,1,0,1,0,0,0,1],[0,1,1,1,0,0,1,0,0,0,1,0,0,0,0,1,0,0,0,1],[0,0,0,0,1,1,0,0,1,0,0,1,1,1,1,1,0,1,0,0],[1,1,1,0,0,1,0,1,1,1,1,1,0,1,1,0,0,1,1,0],[0,1,0,0,0,0,0,0,0,1,0,0,1,0,0,0,0,1,1,1],[0,0,1,1,1,1,0,0,0,0,1,1,0,1,0,1,0,1,0,0],[1,1,0,0,1,0,0,1,1,1,0,0,0,0,1,0,0,0,0,0],[1,1,0,0,0,0,1,0,1,0,1,0,1,1,1,1,1,0,0,1],[0,1,1,1,1,1,1,1,0,1,1,0,1,0,0,0,0,1,0,1],[1,1,0,1,0,1,1,0,1,1,0,0,0,1,0,0,1,0,1,0],[1,1,0,0,1,0,1,0,1,0,0,1,0,1,0,0,1,1,1,1],[1,0,1,0,0,1,0,1,0,0,0,1,0,1,1,0,1,0,1,0],[1,0,0,0,0,0,0,1,0,0,1,1,1,1,0,1,0,1,0,1],[0,0,0,0,1,0,1,1,0,0,0,0,1,1,1,1,0,0,1,1],[0,0,1,1,0,0,1,1,0,1,0,1,1,0,0,0,1,1,1,0],[0,0,0,1,0,1,1,1,0,0,1,0,1,1,0,1,0,1,1,0]],"displayWidth":172,"displayHeight":172,"spacing":100,"style":{"gridBorderColor":"#ffffff","gridBorderWidth":"3","dotColor":"#ffffff","dotLineWidth":"1"}},"pluginResponse":[{"startTime":239495.50000019372,"rt":2762.000000104308,"response":[{"id":0,"name":"Left","answer":96,"prompt":"Left","lastChangedTime":241647.49999996275},{"id":1,"name":"Right","answer":"50","prompt":"Right","lastChangedTime":null}],"stimulusOffTime":899.9999999068677,"trial_type":"canvas-sliders-response","trial_index":81,"time_elapsed":242110,"internal_node_id":"0.0-15.0-0.6"},{"choiceTime":1312.999999616295,"choice":1,"totalTime":3315.999999642372,"image":"http://localhost:8080/ExploringSocialMetacognition/assets/image/advisor2.png","adviceTime":2003.000000026077,"trial_type":"jspsych-jas-present-advice-choice","trial_index":82,"time_elapsed":245426,"internal_node_id":"0.0-15.0-1.6"},{"startTime":245574.5000001043,"rt":1492.9999997839332,"response":[{"id":0,"name":"Left","answer":100,"prompt":"Left","lastChangedTime":246612.5000002794},{"id":1,"name":"Right","answer":"50","prompt":"Right","lastChangedTime":null}],"trial_type":"canvas-sliders-response","trial_index":83,"time_elapsed":246921,"internal_node_id":"0.0-15.0-2.6"}],"confidenceCategory":0,"advisorAgrees":true,"advice":{"filePath":"assets/audio/voices/1/left_think.wav","string":"It was on the LEFT, I think","loaded":true,"loading":true,"data":null,"buffer":{},"side":0,"confidence":0}},{"type":2,"typeName":"choice","block":3,"advisorId":1,"choice":[2,1],"answer":[0,0],"confidence":[100,41],"whichSide":1,"practice":false,"feedback":false,"warnings":[],"stimulusDrawTime":[247969.50000012293],"stimulusOffTime":[900.000000372529,null],"fixationDrawTime":[247469.50000012293],"id":27,"dotDifference":3,"grid":{"dotCountL":197,"dotCountR":203,"gridWidth":20,"gridHeight":20,"dotWidth":2,"dotHeight":2,"paddingX":6,"paddingY":6,"gridL":[[1,1,1,1,0,0,0,1,0,1,0,0,1,0,0,1,0,1,0,1],[1,0,0,0,0,1,1,1,1,1,0,0,1,1,0,0,1,0,0,0],[0,1,1,0,1,1,1,0,0,1,0,1,0,0,1,0,0,1,1,1],[0,0,0,1,0,0,0,1,1,1,0,1,0,1,0,0,1,0,1,0],[1,1,0,1,1,0,0,0,1,1,1,1,0,0,1,0,1,1,0,1],[1,1,0,0,0,1,0,1,1,0,0,0,0,0,1,0,1,1,0,0],[0,0,1,1,1,0,0,0,1,0,1,1,0,1,1,1,1,1,0,1],[0,1,1,0,0,0,0,0,1,1,0,0,1,1,1,0,1,0,0,1],[0,0,1,1,0,1,0,0,1,1,1,0,1,0,1,1,1,1,0,0],[1,1,0,1,0,0,0,0,1,0,1,0,0,0,1,1,0,0,0,1],[0,0,1,1,0,1,1,0,0,0,1,0,1,0,1,0,0,1,0,1],[1,0,0,0,0,1,0,0,0,1,0,0,0,1,1,0,1,1,1,1],[1,0,0,0,1,1,0,0,0,0,1,1,0,1,1,1,1,1,1,0],[1,0,0,0,1,0,1,1,0,0,0,1,0,1,0,0,0,1,1,0],[1,1,0,1,1,0,0,1,0,1,1,1,0,0,0,0,1,1,1,0],[1,1,0,0,1,1,0,1,1,1,0,1,0,0,0,0,0,0,1,0],[1,0,0,0,1,0,1,1,1,0,0,1,0,1,0,1,1,1,1,1],[1,0,1,0,1,0,0,0,1,1,1,1,0,1,1,0,0,0,0,1],[1,1,0,0,0,0,0,0,1,1,0,1,0,1,0,0,1,0,1,1],[1,1,0,1,0,0,0,1,0,1,0,0,1,1,1,1,0,1,0,1]],"gridR":[[0,0,0,0,1,1,1,0,1,1,1,1,0,1,0,1,1,1,0,1],[0,0,1,0,1,1,1,1,1,1,0,0,1,1,0,0,1,0,1,0],[0,0,0,0,0,0,0,0,1,1,1,1,1,1,1,0,1,0,1,0],[0,0,0,1,1,1,0,0,1,0,1,0,1,1,1,0,1,0,0,0],[0,1,1,0,1,1,0,1,1,1,0,0,1,0,0,1,0,0,0,1],[0,0,1,0,1,1,0,0,0,0,1,0,0,1,1,1,1,1,0,0],[0,1,0,0,1,0,0,1,0,0,1,1,0,1,0,1,1,0,1,1],[0,1,1,0,1,0,0,0,1,1,0,0,1,0,0,1,0,1,1,0],[0,1,1,0,1,0,1,0,0,1,0,1,1,1,0,1,1,0,0,1],[1,0,1,0,1,0,1,1,0,0,1,1,1,1,1,0,1,0,0,0],[0,1,1,0,0,1,0,0,1,0,0,1,1,1,0,1,1,0,0,1],[0,1,1,1,1,1,1,0,1,1,1,1,1,0,1,0,0,0,0,0],[1,0,1,1,0,0,0,0,1,0,0,1,0,0,1,0,1,1,0,1],[1,0,0,1,1,0,0,1,1,1,1,1,1,1,1,0,0,1,0,1],[0,1,0,0,0,1,1,1,1,0,1,1,0,1,0,1,1,0,0,0],[1,0,0,1,0,0,0,1,0,1,1,1,0,1,1,0,0,0,1,1],[1,1,0,1,1,1,1,1,0,0,1,1,1,0,0,0,0,0,0,0],[1,1,0,0,1,1,0,0,1,1,1,0,1,0,0,0,1,0,1,0],[0,0,1,1,0,1,1,0,1,1,0,0,0,0,0,1,0,1,0,0],[0,0,1,0,1,0,0,0,1,0,1,1,1,1,0,1,0,0,1,1]],"displayWidth":172,"displayHeight":172,"spacing":100,"style":{"gridBorderColor":"#ffffff","gridBorderWidth":"3","dotColor":"#ffffff","dotLineWidth":"1"}},"pluginResponse":[{"startTime":247269.49999993667,"rt":2895.0000000186265,"response":[{"id":0,"name":"Left","answer":100,"prompt":"Left","lastChangedTime":249037.50000009313},{"id":1,"name":"Right","answer":"50","prompt":"Right","lastChangedTime":null}],"stimulusOffTime":900.000000372529,"trial_type":"canvas-sliders-response","trial_index":84,"time_elapsed":250019,"internal_node_id":"0.0-15.0-0.7"},{"choiceTime":754.9999998882413,"choice":1,"totalTime":2757.9999999143183,"image":"http://localhost:8080/ExploringSocialMetacognition/assets/image/advisor2.png","adviceTime":2003.000000026077,"trial_type":"jspsych-jas-present-advice-choice","trial_index":85,"time_elapsed":252776,"internal_node_id":"0.0-15.0-1.7"},{"startTime":252924.50000019744,"rt":2274.9999999068677,"response":[{"id":0,"name":"Left","answer":41,"prompt":"Left","lastChangedTime":254661.49999992922},{"id":1,"name":"Right","answer":"50","prompt":"Right","lastChangedTime":null}],"trial_type":"canvas-sliders-response","trial_index":86,"time_elapsed":255053,"internal_node_id":"0.0-15.0-2.7"}],"confidenceCategory":0,"advisorAgrees":true,"advice":{"filePath":"assets/audio/voices/1/think_right.wav","string":"I think it was on the RIGHT","loaded":true,"loading":true,"data":null,"buffer":{},"side":1,"confidence":0}},{"type":1,"typeName":"force","block":3,"advisorId":2,"choice":[],"answer":[1,1],"confidence":[100,99],"whichSide":1,"practice":false,"feedback":false,"warnings":[],"stimulusDrawTime":[256101.500000339],"stimulusOffTime":[899.9999999068677,null],"fixationDrawTime":[255601.500000339],"id":28,"dotDifference":6,"grid":{"dotCountL":194,"dotCountR":206,"gridWidth":20,"gridHeight":20,"dotWidth":2,"dotHeight":2,"paddingX":6,"paddingY":6,"gridL":[[0,1,0,1,1,0,1,1,1,1,0,0,1,1,1,0,1,1,0,1],[1,1,0,1,0,1,0,0,1,0,1,0,0,0,1,0,0,1,1,0],[0,0,1,0,0,1,0,1,1,0,0,1,1,0,0,0,0,1,0,0],[0,1,1,1,0,0,1,1,1,0,0,0,0,0,1,0,1,0,1,0],[1,1,0,1,0,0,0,0,0,1,0,0,1,1,0,0,1,1,0,0],