{"participantId":1519993319101,"dotCount":200,"dotDifference":4,"difficultyStep":3,"advisors":[{"id":1,"adviceType":0,"voice":{"basePath":"","id":1,"name":"Annie","lines":{"think_left":{"filePath":"assets/audio/voices/1/think_left.wav","string":"I think it was on the LEFT","loaded":true,"loading":true,"data":null,"buffer":{},"side":0,"confidence":0},"think_right":{"filePath":"assets/audio/voices/1/think_right.wav","string":"I think it was on the RIGHT","loaded":true,"loading":true,"data":null,"buffer":{},"side":1,"confidence":0},"left_think":{"filePath":"assets/audio/voices/1/left_think.wav","string":"It was on the LEFT, I think","loaded":true,"loading":true,"data":null,"buffer":{},"side":0,"confidence":0},"right_think":{"filePath":"assets/audio/voices/1/right_think.wav","string":"It was on the RIGHT, I think","loaded":true,"loading":true,"data":null,"buffer":{},"side":1,"confidence":0},"intro":{"filePath":"assets/audio/voices/1/intro.wav","string":"Hello, my name is ANNIE","loaded":true,"loading":true,"data":null,"buffer":{},"side":false}}},"name":"Annie","portrait":{},"portraitSrc":"http://localhost:8080/ExploringSocialMetacognition/assets/image/advisor1.png"},{"id":3,"adviceType":1,"voice":{"basePath":"","id":3,"name":"Kate","lines":{"think_left":{"filePath":"assets/audio/voices/3/think_left.wav","string":"I think it was on the LEFT","loaded":true,"loading":true,"data":null,"buffer":{},"side":0,"confidence":0},"think_right":{"filePath":"assets/audio/voices/3/think_right.wav","string":"I think it was on the RIGHT","loaded":true,"loading":true,"data":null,"buffer":{},"side":1,"confidence":0},"left_think":{"filePath":"assets/audio/voices/3/left_think.wav","string":"It was on the LEFT, I think","loaded":true,"loading":true,"data":null,"buffer":{},"side":0,"confidence":0},"right_think":{"filePath":"assets/audio/voices/3/right_think.wav","string":"It was on the RIGHT, I think","loaded":true,"loading":true,"data":null,"buffer":{},"side":1,"confidence":0},"intro":{"filePath":"assets/audio/voices/3/intro.wav","string":"Hello, my name is KATE","loaded":true,"loading":true,"data":null,"buffer":{},"side":false}}},"name":"Kate","portrait":{},"portraitSrc":"http://localhost:8080/ExploringSocialMetacognition/assets/image/advisor3.png"},{"id":2,"adviceType":2,"voice":{"basePath":"","id":2,"name":"Bea","lines":{"think_left":{"filePath":"assets/audio/voices/2/think_left.wav","string":"I think it was on the LEFT","loaded":true,"loading":true,"data":null,"buffer":{},"side":0,"confidence":0},"think_right":{"filePath":"assets/audio/voices/2/think_right.wav","string":"I think it was on the RIGHT","loaded":true,"loading":true,"data":null,"buffer":{},"side":1,"confidence":0},"left_think":{"filePath":"assets/audio/voices/2/left_think.wav","string":"It was on the LEFT, I think","loaded":true,"loading":true,"data":null,"buffer":{},"side":0,"confidence":0},"right_think":{"filePath":"assets/audio/voices/2/right_think.wav","string":"It was on the RIGHT, I think","loaded":true,"loading":true,"data":null,"buffer":{},"side":1,"confidence":0},"intro":{"filePath":"assets/audio/voices/2/intro.wav","string":"Hello, my name is BEA","loaded":true,"loading":true,"data":null,"buffer":{},"side":false}}},"name":"Bea","portrait":{},"portraitSrc":"http://localhost:8080/ExploringSocialMetacognition/assets/image/advisor2.png"}],"blockCount":4,"blockStructure":{"0":0,"1":6,"2":6},"blockLength":12,"practiceBlockCount":1,"practiceBlockStructure":{"0":0,"1":12,"2":0},"practiceBlockLength":12,"preTrialInterval":200,"preStimulusInterval":500,"stimulusDuration":200,"feedbackDuration":200,"questionnaireStack":[],"miscTrials":[{"view_history":"[{\"page_index\":0,\"viewing_time\":826},{\"page_index\":1,\"viewing_time\":828}]","rt":1654,"trial_type":"instructions","trial_index":0,"time_elapsed":1655,"internal_node_id":"0.0-0.0"},{"view_history":"[{\"page_index\":0,\"viewing_time\":434956}]","rt":434956,"trial_type":"instructions","trial_index":2,"time_elapsed":439137,"internal_node_id":"0.0-2.0"},{"view_history":"[{\"page_index\":0,\"viewing_time\":812}]","rt":812,"trial_type":"instructions","trial_index":4,"time_elapsed":442782,"internal_node_id":"0.0-4.0"},{"view_history":"[{\"page_index\":0,\"viewing_time\":2078}]","rt":2078,"trial_type":"instructions","trial_index":8,"time_elapsed":451851,"internal_node_id":"0.0-6.0"},{"view_history":"[{\"page_index\":0,\"viewing_time\":844}]","rt":845,"trial_type":"instructions","trial_index":46,"time_elapsed":536484,"internal_node_id":"0.0-9.0"},{"view_history":"[{\"page_index\":0,\"viewing_time\":1374}]","rt":1374,"trial_type":"instructions","trial_index":47,"time_elapsed":537858,"internal_node_id":"0.0-10.0"},{"view_history":"[{\"page_index\":0,\"viewing_time\":1157}]","rt":1157,"trial_type":"instructions","trial_index":86,"time_elapsed":637120,"internal_node_id":"0.0-14.0"},{"view_history":"[{\"page_index\":0,\"viewing_time\":815}]","rt":815,"trial_type":"instructions","trial_index":123,"time_elapsed":717275,"internal_node_id":"0.0-16.0"},{"view_history":"[{\"page_index\":0,\"viewing_time\":1161}]","rt":1161,"trial_type":"instructions","trial_index":160,"time_elapsed":804916,"internal_node_id":"0.0-18.0"}],"trials":[{"type":1,"typeName":"force","block":1,"advisorId":0,"choice":[],"answer":[0,null],"confidence":[87,null],"whichSide":0,"practice":true,"feedback":true,"warnings":[],"stimulusDrawTime":[2486.0000000335276],"stimulusOffTime":[null],"fixationDrawTime":[1986.9999999646097],"id":1,"dotDifference":30,"grid":{"dotCountL":230,"dotCountR":170,"gridWidth":20,"gridHeight":20,"dotWidth":2,"dotHeight":2,"paddingX":6,"paddingY":6,"gridL":[[1,0,0,0,0,1,0,0,1,0,0,1,0,1,1,1,1,1,1,0],[1,1,1,1,1,1,0,1,0,1,0,1,0,1,1,0,0,0,1,0],[1,1,1,0,0,0,1,1,0,0,1,0,0,1,1,0,0,0,1,1],[0,0,1,0,1,1,1,0,0,0,0,1,1,1,0,1,1,1,1,1],[1,1,1,0,1,0,0,0,1,0,1,0,0,0,1,1,1,1,1,0],[1,0,1,1,1,1,1,1,0,0,0,1,1,1,0,1,1,1,1,0],[0,1,1,1,1,0,1,1,1,0,1,1,0,1,0,1,1,1,1,0],[0,1,1,1,1,1,1,0,0,0,1,1,1,1,0,1,1,1,0,1],[0,1,1,1,0,0,1,1,1,0,1,1,0,1,1,1,0,0,0,1],[0,0,0,0,1,1,1,1,1,0,1,1,0,1,1,1,1,1,0,0],[0,0,0,0,0,0,0,0,1,0,0,1,1,0,1,1,1,0,0,1],[0,0,0,0,1,1,0,1,0,0,0,1,0,1,1,1,0,1,0,1],[0,1,0,0,1,0,0,1,0,1,1,0,0,0,0,1,0,1,0,0],[1,1,0,0,0,1,0,0,1,0,0,1,0,1,1,1,1,1,1,1],[0,1,0,0,1,1,1,1,1,1,1,0,1,1,0,0,1,1,0,1],[0,1,1,0,1,0,1,1,1,1,1,1,1,1,1,0,1,1,0,1],[0,1,1,1,1,1,0,1,1,1,1,1,1,1,0,1,0,0,0,0],[1,0,1,1,0,0,1,0,1,0,1,0,1,0,1,1,0,0,1,0],[1,1,0,1,1,1,0,0,1,1,1,1,0,1,0,0,1,1,0,1],[1,0,0,0,0,1,0,0,1,0,1,0,1,1,0,1,1,1,0,1]],"gridR":[[0,0,1,1,0,0,1,0,1,1,1,1,1,0,0,0,0,0,1,0],[0,1,0,0,1,1,0,0,1,0,0,0,1,0,1,0,1,1,0,0],[0,0,0,1,0,1,1,0,0,1,1,1,0,1,0,1,0,0,0,0],[1,1,1,1,1,1,0,0,1,0,0,0,0,0,0,0,0,0,0,0],[1,1,0,0,1,0,0,1,0,1,0,0,0,0,0,0,0,1,1,0],[1,1,1,0,0,1,1,0,0,0,1,1,1,1,0,1,1,1,0,1],[1,0,0,0,0,0,1,1,1,1,0,1,0,1,1,1,0,0,1,0],[0,0,1,0,1,1,1,0,1,0,1,0,0,0,1,0,1,0,1,0],[1,0,1,0,1,1,0,1,0,0,0,0,1,1,0,1,1,1,1,0],[1,0,0,0,1,0,0,0,1,1,1,1,1,1,0,1,0,0,1,1],[0,1,0,0,0,1,0,0,0,0,0,1,0,0,0,0,0,1,0,0],[0,1,0,1,0,0,0,1,0,0,0,0,0,0,0,0,1,1,1,1],[1,1,1,0,0,0,1,1,0,0,0,0,0,1,0,1,0,0,1,1],[0,1,1,0,0,0,1,1,1,0,0,0,0,0,0,1,1,1,0,0],[0,1,1,1,1,1,1,1,1,1,0,0,1,0,1,0,0,1,1,0],[1,0,0,0,0,0,1,0,1,1,1,0,0,0,0,0,1,1,1,1],[0,0,1,0,0,0,0,0,0,0,0,1,0,1,0,0,0,0,1,0],[0,0,0,1,0,1,1,0,0,0,1,0,0,1,0,1,0,0,1,0],[1,0,0,1,1,1,1,1,0,0,0,0,0,0,1,0,0,1,1,0],[0,0,0,0,0,1,0,1,0,0,0,1,0,1,1,0,1,0,1,0]],"displayWidth":172,"displayHeight":172,"spacing":100,"style":{"gridBorderColor":"#ffffff","gridBorderWidth":"3","dotColor":"#ffffff","dotLineWidth":"1"}},"pluginResponse":[{"startTime":1784.999999916181,"rt":2324.0000000223517,"response":[{"id":0,"name":"Left","answer":87,"prompt":"Left","lastChangedTime":3489.0000000596046},{"id":1,"name":"Right","answer":"50","prompt":"Right","lastChangedTime":null}],"trial_type":"canvas-sliders-response","trial_index":1,"time_elapsed":3981,"internal_node_id":"0.0-1.0"}]},{"type":1,"typeName":"force","block":1,"advisorId":0,"choice":[],"answer":[0,null],"confidence":[72,null],"whichSide":0,"practice":true,"feedback":true,"warnings":[],"stimulusDrawTime":[439966.999999946],"stimulusOffTime":[null],"fixationDrawTime":[439466.999999946],"id":2,"dotDifference":30,"grid":{"dotCountL":230,"dotCountR":170,"gridWidth":20,"gridHeight":20,"dotWidth":2,"dotHeight":2,"paddingX":6,"paddingY":6,"gridL":[[0,0,1,1,0,0,1,0,0,1,1,0,1,1,0,0,0,0,1,1],[1,1,0,0,0,1,0,1,0,1,1,1,0,1,1,1,0,1,1,0],[0,1,0,1,1,0,1,0,0,1,0,1,0,1,0,0,0,1,0,1],[0,0,0,1,1,1,1,1,1,0,1,1,0,1,0,1,1,1,1,1],[1,0,1,1,0,1,0,0,1,1,1,1,1,1,1,1,1,0,1,0],[1,1,0,1,0,0,1,1,0,1,0,1,0,0,1,0,0,0,1,0],[0,1,0,0,1,1,1,1,1,1,1,1,1,0,0,1,1,1,0,1],[1,1,0,0,0,1,0,1,1,1,0,0,0,0,0,1,1,0,1,1],[1,0,1,1,0,1,1,0,0,1,1,1,0,1,1,0,1,1,1,0],[0,1,0,0,1,1,1,0,1,0,1,1,1,0,0,1,1,0,0,1],[0,1,0,1,1,1,1,1,0,0,1,0,1,0,1,1,1,1,0,0],[1,1,0,1,1,0,0,1,1,1,0,1,1,0,1,1,1,1,1,1],[0,0,1,0,0,0,1,1,1,0,1,1,1,0,0,1,0,0,0,0],[0,0,1,1,1,0,0,1,1,0,1,1,1,1,0,1,0,1,1,1],[0,0,0,1,1,0,0,1,1,1,1,0,0,1,1,1,1,0,1,1],[1,0,1,1,1,1,0,0,1,1,1,1,1,1,1,0,0,1,1,0],[0,1,0,0,1,1,0,1,1,0,0,1,0,0,0,1,0,0,0,0],[0,0,0,1,1,0,1,0,1,0,1,1,1,1,1,1,0,1,0,1],[1,0,0,1,0,1,0,0,1,0,0,1,0,1,0,1,1,0,1,0],[1,1,1,0,0,1,1,1,0,1,1,1,0,0,1,1,0,1,1,0]],"gridR":[[0,0,1,0,1,0,0,1,0,0,1,0,0,1,1,1,1,1,1,0],[1,0,0,0,0,1,1,0,0,0,1,0,0,1,0,1,1,0,1,1],[1,1,0,0,1,0,0,0,1,1,1,1,0,1,0,0,1,0,0,0],[0,0,1,0,1,1,0,1,0,0,1,0,1,0,1,0,1,0,1,0],[1,0,1,0,0,0,1,1,1,0,0,1,1,1,1,0,0,0,0,0],[1,1,0,0,0,0,0,1,1,1,1,0,0,1,0,0,0,1,0,0],[1,0,0,1,0,0,0,0,0,1,0,1,1,0,0,0,0,0,1,0],[0,0,0,0,0,0,1,0,0,0,0,0,1,0,0,0,0,1,1,1],[0,0,0,1,0,0,0,0,0,0,0,0,0,0,0,1,0,0,1,0],[0,0,1,1,0,0,0,1,1,1,1,1,0,0,0,1,1,0,0,1],[0,1,0,1,0,1,1,0,0,0,1,1,0,1,1,0,1,1,0,0],[1,0,0,0,1,0,1,0,0,0,0,0,1,0,0,0,0,0,0,0],[0,0,0,0,1,0,1,0,0,1,0,1,1,0,0,1,0,1,1,0],[0,1,0,0,0,1,1,0,0,1,0,0,1,1,1,0,1,1,1,0],[1,1,0,1,0,1,0,0,0,1,0,0,1,1,0,1,1,1,1,0],[1,0,1,1,0,0,0,1,0,0,1,1,1,0,0,0,0,0,1,1],[1,0,0,0,0,0,0,0,1,1,0,0,0,1,1,0,0,0,0,1],[0,0,1,0,0,0,1,1,0,1,1,1,0,1,1,1,1,1,0,1],[1,1,0,0,1,0,1,0,1,1,0,0,1,0,1,1,0,0,1,1],[0,0,1,0,1,0,1,1,1,1,0,1,0,0,1,0,1,1,1,0]],"displayWidth":172,"displayHeight":172,"spacing":100,"style":{"gridBorderColor":"#ffffff","gridBorderWidth":"3","dotColor":"#ffffff","dotLineWidth":"1"}},"pluginResponse":[{"startTime":439266.99999999255,"rt":2631.000000052154,"response":[{"id":0,"name":"Left","answer":72,"prompt":"Left","lastChangedTime":441351.9999999553},{"id":1,"name":"Right","answer":"50","prompt":"Right","lastChangedTime":null}],"trial_type":"canvas-sliders-response","trial_index":3,"time_elapsed":441770,"internal_node_id":"0.0-3.0"}]},{"type":1,"typeName":"force","block":1,"advisorId":1,"choice":[],"answer":[0,0],"confidence":[50,80],"whichSide":0,"practice":true,"feedback":true,"warnings":["getConfidenceCategory: too few trials available to estimate confidence"],"stimulusDrawTime":[443612.9999998957],"stimulusOffTime":[null,null],"fixationDrawTime":[443112.9999998957],"id":3,"dotDifference":30,"grid":{"dotCountL":230,"dotCountR":170,"gridWidth":20,"gridHeight":20,"dotWidth":2,"dotHeight":2,"paddingX":6,"paddingY":6,"gridL":[[1,0,0,0,1,1,1,1,1,0,0,1,1,1,1,1,1,1,0,0],[1,1,1,0,0,1,1,0,0,1,1,0,0,0,1,1,1,1,1,0],[0,1,0,0,1,0,1,1,0,0,0,0,1,1,0,0,0,0,1,0],[0,1,1,1,1,0,0,0,0,0,1,1,0,0,1,1,1,1,0,0],[0,1,0,0,1,1,0,0,1,1,1,0,1,1,0,0,1,0,0,1],[1,1,0,1,1,1,1,1,1,1,1,1,0,0,1,0,0,1,1,0],[1,0,0,1,1,0,1,1,1,0,0,0,0,0,0,0,1,1,1,1],[0,1,0,0,0,1,0,0,0,0,1,1,1,0,1,1,0,1,0,0],[1,1,1,1,1,0,1,1,1,1,1,0,1,1,0,0,1,1,0,0],[0,1,0,1,1,1,0,1,1,0,0,1,1,1,1,0,0,0,1,1],[0,1,1,1,1,0,1,0,0,1,0,1,1,1,0,0,1,1,1,0],[1,0,1,1,1,1,1,0,1,1,0,1,0,0,1,1,1,0,0,1],[0,1,0,1,0,1,1,0,0,0,1,1,0,1,0,1,1,1,1,0],[0,1,1,1,0,0,0,0,1,1,1,1,0,0,0,0,0,1,0,1],[0,1,0,0,0,1,0,1,0,1,1,1,0,0,1,1,0,0,0,1],[1,1,0,0,1,1,1,0,0,1,0,1,1,1,1,1,1,1,0,1],[1,1,0,1,1,0,0,0,1,1,1,0,0,0,1,1,1,1,0,1],[1,0,0,1,1,1,0,1,1,0,1,1,1,0,1,1,1,1,0,1],[0,0,0,1,1,1,1,0,1,1,1,1,1,1,1,1,1,1,1,0],[1,0,1,1,1,1,1,0,0,0,0,0,1,0,1,1,1,0,1,0]],"gridR":[[0,1,1,1,0,0,0,0,1,1,1,1,0,0,1,1,0,0,1,1],[0,1,1,0,1,0,0,0,1,1,1,0,0,0,0,1,0,0,1,1],[0,0,0,0,1,0,0,0,0,1,1,0,1,1,0,1,0,1,0,0],[1,1,1,1,0,1,1,0,0,0,0,0,0,0,0,0,0,0,0,0],[0,1,1,0,0,1,0,1,1,0,0,0,1,1,1,0,1,0,0,1],[1,1,0,1,0,1,0,0,0,0,0,0,0,1,0,0,1,0,0,0],[0,1,0,1,1,1,1,1,0,0,0,1,0,0,1,1,0,0,1,1],[1,0,1,0,0,1,1,0,0,1,0,0,0,1,1,1,1,1,0,0],[0,1,0,1,1,0,0,1,0,1,1,1,0,0,0,0,0,0,0,1],[0,0,1,0,1,1,0,1,1,0,1,1,0,0,0,1,1,1,0,0],[0,0,1,0,0,1,1,1,0,0,0,1,1,1,0,0,1,1,0,0],[1,0,0,0,1,0,1,1,0,0,0,0,0,1,0,0,0,1,0,0],[1,1,1,0,0,0,0,1,0,0,1,0,0,1,0,1,1,0,0,0],[1,1,0,0,0,0,1,0,1,1,0,1,1,0,1,1,0,1,0,0],[0,0,1,1,0,0,1,0,0,0,0,0,1,1,1,1,0,1,1,0],[1,1,0,1,1,0,0,0,1,0,0,0,0,0,0,1,0,1,0,0],[1,0,0,0,1,0,1,0,1,0,0,0,0,0,1,0,1,0,1,1],[1,1,0,1,0,0,1,0,0,1,0,0,1,0,0,0,0,0,0,1],[1,0,0,0,0,1,0,0,1,1,1,0,0,1,0,1,0,1,1,0],[1,0,0,0,0,0,1,0,0,0,1,1,0,1,1,0,0,1,1,1]],"displayWidth":172,"displayHeight":172,"spacing":100,"style":{"gridBorderColor":"#ffffff","gridBorderWidth":"3","dotColor":"#ffffff","dotLineWidth":"1"}},"pluginResponse":[{"startTime":442911.0000000801,"rt":2222.9999999981374,"response":[{"id":0,"name":"Left","answer":50,"prompt":"Left","lastChangedTime":444472.00000006706},{"id":1,"name":"Right","answer":"50","prompt":"Right","lastChangedTime":null}],"trial_type":"canvas-sliders-response","trial_index":5,"time_elapsed":445005,"internal_node_id":"0.0-5.0-0.0"},{"choiceTime":0,"choice":1,"totalTime":2003.9999999571592,"image":"http://localhost:8080/ExploringSocialMetacognition/assets/image/advisor1.png","adviceTime":2003.9999999571592,"trial_type":"jspsych-jas-present-advice-choice","trial_index":6,"time_elapsed":447210,"internal_node_id":"0.0-5.0-1.0"},{"startTime":447340.0000000838,"rt":2360.999999800697,"response":[{"id":0,"name":"Left","answer":80,"prompt":"Left","lastChangedTime":449030.00000002794},{"id":1,"name":"Right","answer":"50","prompt":"Right","lastChangedTime":null}],"trial_type":"canvas-sliders-response","trial_index":7,"time_elapsed":449572,"internal_node_id":"0.0-5.0-2.0"}],"advisorAgrees":true},{"type":1,"typeName":"force","block":1,"advisorId":1,"choice":[],"answer":[1,1],"confidence":[44,79],"whichSide":1,"practice":true,"feedback":true,"warnings":["getConfidenceCategory: too few trials available to estimate confidence"],"stimulusDrawTime":[452680.9999998659],"stimulusOffTime":[899.9999999068677,null],"fixationDrawTime":[452180.9999998659],"id":4,"dotDifference":27,"grid":{"dotCountL":173,"dotCountR":227,"gridWidth":20,"gridHeight":20,"dotWidth":2,"dotHeight":2,"paddingX":6,"paddingY":6,"gridL":[[1,1,1,0,0,1,0,0,1,0,0,0,1,1,0,0,0,0,1,0],[1,0,1,0,1,0,1,0,1,0,0,0,1,0,1,1,0,1,0,1],[0,0,1,1,0,1,1,1,0,0,1,0,0,0,0,0,0,0,1,1],[1,1,1,1,0,0,1,0,0,0,1,1,1,1,1,0,0,1,1,1],[1,0,1,1,1,1,1,1,0,0,0,1,1,1,1,1,1,0,0,1],[0,0,0,0,1,1,1,0,0,1,1,0,0,0,1,1,1,0,0,1],[1,0,1,1,1,1,0,0,1,1,0,0,0,0,0,0,0,1,1,0],[1,0,1,0,0,1,0,0,0,0,0,1,0,1,1,1,0,0,0,0],[1,0,1,0,1,1,1,0,0,0,0,1,1,1,1,0,0,1,0,1],[0,1,1,0,0,1,1,1,1,0,0,1,0,0,1,0,0,1,0,0],[0,0,0,0,0,0,0,0,1,1,0,0,0,0,1,1,0,0,0,1],[0,0,1,1,0,0,0,1,0,1,0,0,0,1,0,0,1,0,0,0],[0,1,1,0,0,1,1,1,0,0,1,0,1,0,1,0,0,1,0,0],[1,0,0,0,1,1,1,0,1,1,0,0,0,0,0,0,1,0,0,0],[0,1,0,1,1,1,1,0,1,0,0,0,1,1,0,0,0,1,0,1],[0,0,1,1,1,0,1,1,1,0,1,0,0,1,0,1,0,0,0,1],[0,0,0,0,0,1,0,0,1,1,1,0,0,1,1,0,0,1,0,0],[0,0,0,1,1,0,0,0,0,1,1,1,0,0,0,1,0,0,0,0],[0,1,1,0,1,1,1,0,0,0,0,1,0,0,1,0,1,0,1,1],[0,0,1,1,1,1,0,1,0,0,0,0,0,0,0,0,0,0,0,0]],"gridR":[[0,1,1,1,0,0,1,1,0,0,1,1,1,0,1,0,1,1,0,1],[1,0,1,1,0,1,0,1,1,0,0,1,1,1,1,0,0,1,1,0],[1,1,0,1,1,0,1,0,0,1,0,0,0,1,0,0,0,1,0,1],[0,1,1,0,1,0,1,1,0,1,0,1,1,0,1,1,1,1,1,1],[0,1,0,0,1,1,0,1,1,1,0,1,1,1,1,1,1,1,1,1],[0,1,1,0,0,1,0,0,0,0,1,0,0,0,0,0,1,0,0,1],[1,1,0,1,0,0,0,0,0,1,0,1,1,1,1,0,0,0,0,0],[0,1,0,1,0,1,1,1,1,1,1,0,1,0,0,1,0,1,0,0],[0,1,0,1,0,1,1,1,1,1,0,1,1,0,0,0,0,1,0,1],[1,1,0,0,1,1,0,0,0,1,0,0,0,1,1,1,1,1,0,1],[0,1,1,0,0,1,1,1,0,1,0,1,0,1,0,1,1,1,0,0],[1,1,0,0,0,1,1,0,1,0,0,0,0,1,1,1,1,1,1,1],[1,1,1,1,1,0,0,0,0,0,1,0,1,0,0,1,1,1,1,1],[1,0,0,1,1,1,1,0,1,1,0,1,0,0,0,1,1,0,1,1],[1,0,0,1,0,1,1,0,0,1,1,1,1,1,0,1,0,1,0,1],[1,1,0,1,1,1,1,1,1,0,1,1,1,1,1,1,0,0,0,1],[0,0,1,0,1,1,0,0,0,0,1,1,1,1,0,0,1,1,0,0],[0,1,1,1,0,0,1,0,0,1,1,1,0,1,1,0,0,0,1,1],[1,0,1,1,1,1,1,1,1,1,1,0,0,1,0,0,1,0,1,1],[1,0,0,0,1,0,1,1,0,0,0,1,0,1,1,1,1,0,1,0]],"displayWidth":172,"displayHeight":172,"spacing":100,"style":{"gridBorderColor":"#ffffff","gridBorderWidth":"3","dotColor":"#ffffff","dotLineWidth":"1"}},"pluginResponse":[{"startTime":451979.9999999814,"rt":2428.000000072643,"response":[{"id":0,"name":"Left","answer":50,"prompt":"Left","lastChangedTime":null},{"id":1,"name":"Right","answer":"44","prompt":"Right","lastChangedTime":453823.00000009127}],"stimulusOffTime":899.9999999068677,"trial_type":"canvas-sliders-response","trial_index":9,"time_elapsed":454279,"internal_node_id":"0.0-7.0-0.0"},{"choiceTime":0,"choice":1,"totalTime":2002.000000094995,"image":"http://localhost:8080/ExploringSocialMetacognition/assets/image/advisor1.png","adviceTime":2002.000000094995,"trial_type":"jspsych-jas-present-advice-choice","trial_index":10,"time_elapsed":456282,"internal_node_id":"0.0-7.0-1.0"},{"startTime":456411.0000000801,"rt":1206.99999993667,"response":[{"id":0,"name":"Left","answer":50,"prompt":"Left","lastChangedTime":null},{"id":1,"name":"Right","answer":"79","prompt":"Right","lastChangedTime":457060.0000000559}],"trial_type":"canvas-sliders-response","trial_index":11,"time_elapsed":457489,"internal_node_id":"0.0-7.0-2.0"}],"advisorAgrees":true},{"type":1,"typeName":"force","block":1,"advisorId":1,"choice":[],"answer":[1,1],"confidence":[72,27],"whichSide":1,"practice":true,"feedback":true,"warnings":["getConfidenceCategory: too few trials available to estimate confidence"],"stimulusDrawTime":[458520.0000000186],"stimulusOffTime":[901.0000000707805,null],"fixationDrawTime":[458019.00000008754],"id":5,"dotDifference":24,"grid":{"dotCountL":176,"dotCountR":224,"gridWidth":20,"gridHeight":20,"dotWidth":2,"dotHeight":2,"paddingX":6,"paddingY":6,"gridL":[[0,1,1,1,0,0,0,1,0,0,0,0,0,0,0,1,1,0,1,0],[0,1,1,1,0,0,1,0,0,0,0,0,1,0,0,0,1,0,0,0],[1,1,0,1,1,0,1,0,1,0,1,1,0,0,0,1,1,0,0,0],[1,1,1,0,1,1,0,0,1,0,0,0,0,0,0,1,1,1,0,0],[0,1,1,0,1,1,0,1,0,1,0,0,1,0,0,0,0,0,1,0],[1,1,1,1,0,1,0,0,0,1,0,1,0,1,1,0,0,0,0,0],[1,1,0,1,1,0,1,0,1,0,0,0,1,0,0,0,1,1,0,1],[1,0,0,0,1,0,0,1,0,1,1,0,1,1,0,0,0,0,1,0],[0,1,1,1,1,1,0,1,0,0,0,0,0,0,1,1,0,1,1,0],[1,1,0,0,1,0,0,1,1,1,0,0,1,0,0,0,0,1,0,1],[1,1,1,0,0,0,1,1,0,0,0,1,1,1,0,1,1,1,0,1],[1,1,1,1,1,0,0,0,0,0,0,0,1,1,0,0,0,0,1,0],[1,1,0,1,0,0,0,0,0,0,0,0,0,1,1,0,1,0,0,0],[1,0,1,0,1,1,0,1,0,0,1,0,1,0,1,0,0,0,1,1],[0,0,0,0,0,0,0,1,0,1,0,0,1,1,0,0,0,0,0,1],[1,0,1,0,1,0,0,1,0,0,0,0,0,0,1,0,1,1,0,1],[0,1,0,1,0,1,0,1,1,1,0,0,0,1,1,1,1,1,0,1],[0,0,1,1,1,1,0,0,1,1,1,0,0,0,0,0,0,1,0,1],[0,1,1,1,0,1,0,1,1,0,0,1,1,0,1,0,1,1,0,1],[0,0,1,0,1,1,1,1,1,1,0,0,0,0,0,0,1,0,0,0]],"gridR":[[1,1,0,0,1,0,1,0,0,1,1,0,1,0,1,1,0,0,1,1],[1,1,0,0,0,1,1,0,0,1,0,0,1,1,1,1,0,1,0,1],[0,0,1,0,0,1,0,0,0,1,0,1,0,1,1,0,0,1,0,0],[1,1,0,1,1,0,1,0,1,0,0,1,1,1,0,1,1,1,1,0],[1,1,1,0,1,1,1,1,0,1,1,0,1,1,1,1,0,1,0,1],[0,1,0,1,0,0,1,1,0,1,0,0,0,1,1,1,1,1,1,1],[1,1,1,0,0,1,1,1,1,0,1,1,0,0,1,1,0,0,0,1],[0,1,0,0,0,1,1,0,0,1,0,1,0,1,0,1,1,1,0,1],[0,0,0,1,0,0,0,0,1,0,1,0,0,1,1,0,0,1,1,0],[1,0,1,1,1,0,1,1,0,0,0,1,1,0,1,0,0,0,0,0],[1,1,0,1,1,0,1,0,1,1,0,1,0,0,1,1,1,1,0,0],[1,1,1,1,0,1,1,0,0,1,1,0,0,1,1,0,0,1,1,1],[1,1,0,1,1,0,0,0,1,1,1,0,0,0,0,0,1,1,0,1],[0,1,1,1,1,0,0,0,1,0,1,0,1,1,1,1,0,1,0,1],[1,1,1,1,0,1,1,1,1,1,1,1,1,1,1,0,0,1,0,1],[1,1,1,1,0,0,1,1,0,1,1,0,1,0,0,1,1,1,1,1],[1,0,0,0,0,1,1,1,0,1,0,0,0,1,1,1,1,0,1,0],[1,0,1,0,1,1,1,0,1,0,1,0,0,1,0,1,1,0,0,0],[1,1,0,1,1,0,1,0,1,0,1,1,0,0,0,1,0,0,0,0],[0,1,1,0,0,1,1,1,1,0,0,0,1,1,1,0,0,1,1,0]],"displayWidth":172,"displayHeight":172,"spacing":100,"style":{"gridBorderColor":"#ffffff","gridBorderWidth":"3","dotColor":"#ffffff","dotLineWidth":"1"}},"pluginResponse":[{"startTime":457817.9999999702,"rt":2213.9999999199063,"response":[{"id":0,"name":"Left","answer":50,"prompt":"Left","lastChangedTime":null},{"id":1,"name":"Right","answer":"72","prompt":"Right","lastChangedTime":459547.0000000205}],"stimulusOffTime":901.0000000707805,"trial_type":"canvas-sliders-response","trial_index":12,"time_elapsed":459903,"internal_node_id":"0.0-7.0-0.1"},{"choiceTime":0,"choice":1,"totalTime":2001.9999998621643,"image":"http://localhost:8080/ExploringSocialMetacognition/assets/image/advisor1.png","adviceTime":2001.9999998621643,"trial_type":"jspsych-jas-present-advice-choice","trial_index":13,"time_elapsed":461906,"internal_node_id":"0.0-7.0-1.1"},{"startTime":462036.0000000801,"rt":5346.999999834225,"response":[{"id":0,"name":"Left","answer":50,"prompt":"Left","lastChangedTime":464756.99999998324},{"id":1,"name":"Right","answer":"27","prompt":"Right","lastChangedTime":466777.00000000186}],"trial_type":"canvas-sliders-response","trial_index":14,"time_elapsed":467255,"internal_node_id":"0.0-7.0-2.1"}],"advisorAgrees":false},{"block":1,"advisorId":1,"choice":[],"answer":[0,0],"confidence":[82,50],"whichSide":0,"practice":true,"feedback":true,"warnings":["getConfidenceCategory: too few trials available to estimate confidence"],"stimulusDrawTime":[468286.0000000801],"stimulusOffTime":[899.9999999068677,null],"fixationDrawTime":[467784.9999999162],"id":6,"dotDifference":21,"grid":{"dotCountL":221,"dotCountR":179,"gridWidth":20,"gridHeight":20,"dotWidth":2,"dotHeight":2,"paddingX":6,"paddingY":6,"gridL":[[1,1,0,0,0,1,0,1,1,1,1,0,0,1,1,1,1,1,1,0],[0,1,1,0,0,1,1,1,1,1,0,1,0,1,1,0,1,1,1,1],[0,0,1,0,1,0,0,0,1,1,1,1,1,1,0,0,1,0,0,1],[0,0,1,1,0,1,1,0,1,1,0,1,1,1,0,1,1,1,1,1],[1,1,0,1,1,0,1,0,1,1,1,1,0,1,0,1,0,1,0,1],[1,1,0,0,0,0,0,0,0,1,0,1,1,1,1,0,1,1,0,0],[0,0,0,1,1,1,0,1,0,1,0,0,0,0,0,0,0,0,0,1],[1,0,0,1,0,1,0,1,0,0,1,1,1,1,1,1,1,0,0,1],[1,0,0,1,1,1,0,1,0,0,1,0,0,0,0,0,1,1,0,1],[1,1,1,0,0,0,0,1,0,1,0,0,1,1,1,1,0,1,1,1],[1,1,1,0,1,1,1,0,1,1,1,0,0,0,1,0,0,1,1,1],[1,0,0,0,0,1,1,0,1,1,1,1,0,1,0,0,0,0,0,1],[0,0,1,0,0,0,1,0,0,0,1,0,0,0,1,0,1,1,1,0],[1,0,1,0,1,0,0,1,1,1,1,1,0,1,0,0,0,0,1,1],[1,0,1,1,1,1,1,0,1,0,1,0,0,0,1,0,1,1,0,0],[1,1,0,1,1,1,1,1,1,1,1,1,0,0,1,1,1,0,1,1],[1,0,0,1,1,0,0,0,1,1,1,0,1,0,0,0,1,0,1,1],[0,1,0,1,1,1,0,1,1,1,1,0,0,1,1,0,1,1,0,1],[0,1,1,1,0,1,1,0,1,1,0,0,0,1,0,1,0,1,1,1],[1,1,0,0,0,0,0,0,0,1,0,0,1,1,1,0,0,0,1,0]],"gridR":[[1,0,0,1,1,0,1,1,1,0,0,0,0,0,0,1,1,1,1,0],[0,0,0,0,0,0,0,1,0,1,0,1,1,0,0,0,1,1,0,1],[0,1,0,0,0,1,1,0,1,0,0,1,1,0,1,1,0,0,1,0],[0,0,0,1,0,0,0,0,0,1,0,0,0,1,0,0,0,1,1,0],[1,1,0,1,1,1,0,1,1,0,1,1,0,1,1,0,0,0,1,1],[0,1,0,0,1,0,0,0,0,1,0,0,1,0,0,1,0,0,0,0],[1,1,0,1,0,1,0,1,0,0,1,1,0,0,1,0,1,0,1,1],[0,1,0,1,0,1,0,0,0,0,1,1,1,1,1,0,1,1,0,0],[1,1,0,0,0,0,1,0,1,0,1,0,0,0,0,0,0,0,0,0],[0,1,0,1,1,0,1,0,1,0,1,0,0,1,0,0,0,0,0,0],[1,1,1,0,0,1,0,0,0,1,0,1,0,1,1,0,1,0,0,1],[0,0,0,0,0,0,0,1,0,1,0,1,1,0,0,1,1,1,0,0],[0,0,0,1,1,1,1,1,0,0,0,0,0,1,1,0,0,1,1,0],[1,1,1,0,0,1,1,1,1,0,1,1,0,1,0,0,0,1,1,1],[0,1,0,0,0,1,1,1,1,0,1,1,0,0,0,1,0,1,0,1],[0,1,1,0,1,0,0,0,0,0,0,1,0,1,1,1,0,1,1,0],[0,1,1,1,1,1,0,1,1,0,0,0,0,0,1,0,1,1,1,0],[0,0,1,1,0,1,1,0,0,1,0,0,0,1,1,0,0,1,0,0],[0,1,0,0,1,1,1,0,0,0,1,1,1,0,0,1,0,0,1,1],[0,0,1,0,0,0,1,0,1,0,0,1,1,1,0,0,1,1,1,1]],"displayWidth":172,"displayHeight":172,"spacing":100,"style":{"gridBorderColor":"#ffffff","gridBorderWidth":"3","dotColor":"#ffffff","dotLineWidth":"1"}},"pluginResponse":[{"startTime":467584.99999996275,"rt":2316.0000001080334,"response":[{"id":0,"name":"Left","answer":82,"prompt":"Left","lastChangedTime":469382.9999999143},{"id":1,"name":"Right","answer":"50","prompt":"Right","lastChangedTime":null}],"stimulusOffTime":899.9999999068677,"trial_type":"canvas-sliders-response","trial_index":15,"time_elapsed":469773,"internal_node_id":"0.0-7.0-0.2"},{"choiceTime":0,"choice":1,"totalTime":2002.000000094995,"image":"http://localhost:8080/ExploringSocialMetacognition/assets/image/advisor1.png","adviceTime":2002.000000094995,"trial_type":"jspsych-jas-present-advice-choice","trial_index":16,"time_elapsed":471774,"internal_node_id":"0.0-7.0-1.2"},{"startTime":471905.00000002794,"rt":1668.00000006333,"response":[{"id":0,"name":"Left","answer":50,"prompt":"Left","lastChangedTime":472909.9999999162},{"id":1,"name":"Right","answer":"50","prompt":"Right","lastChangedTime":null}],"trial_type":"canvas-sliders-response","trial_index":17,"time_elapsed":473444,"internal_node_id":"0.0-7.0-2.2"}],"advisorAgrees":false},{"block":1,"advisorId":1,"choice":[],"answer":[0,0],"confidence":[40,22],"whichSide":0,"practice":true,"feedback":true,"warnings":["getConfidenceCategory: too few trials available to estimate confidence"],"stimulusDrawTime":[474473.9999999292],"stimulusOffTime":[899.9999999068677,null],"fixationDrawTime":[473975.00000009313],"id":7,"dotDifference":18,"grid":{"dotCountL":218,"dotCountR":182,"gridWidth":20,"gridHeight":20,"dotWidth":2,"dotHeight":2,"paddingX":6,"paddingY":6,"gridL":[[1,0,0,1,1,1,1,1,0,1,0,1,0,0,0,0,1,1,1,0],[1,1,1,1,0,1,0,1,0,1,0,0,0,0,1,0,0,1,1,1],[1,1,1,1,0,0,0,0,1,1,0,1,0,0,1,0,0,0,0,1],[1,0,1,0,0,0,0,0,0,1,0,0,1,1,1,0,1,1,0,1],[0,0,0,0,1,1,1,1,1,0,0,1,1,0,0,1,1,1,0,1],[0,1,0,0,0,1,0,1,0,1,0,1,0,0,1,1,0,0,0,0],[0,0,0,1,1,1,1,1,1,0,1,1,1,0,1,1,1,1,1,0],[0,1,1,0,1,1,0,1,1,1,0,1,1,1,1,1,1,1,0,1],[0,0,1,0,0,0,0,1,0,1,1,0,1,0,1,1,1,1,0,0],[0,0,1,1,1,0,1,1,1,1,1,0,0,0,0,1,0,0,1,1],[0,0,1,1,1,0,1,1,1,0,0,1,1,1,0,1,1,0,1,1],[0,0,0,0,0,0,0,0,1,1,1,1,1,1,1,0,0,1,1,1],[0,1,0,1,0,1,1,1,0,1,1,0,1,0,1,0,1,1,1,1],[1,1,1,1,1,0,1,1,0,1,0,1,0,1,0,1,0,1,1,0],[0,1,1,1,0,0,0,1,0,0,1,0,1,0,0,0,1,0,0,1],[1,1,0,0,0,0,1,1,1,0,0,1,1,1,1,1,1,0,0,0],[0,1,1,1,1,0,1,1,1,1,1,1,0,0,1,0,1,1,1,1],[1,0,0,1,1,1,0,1,0,1,0,1,1,1,1,0,0,0,1,0],[0,0,1,0,1,1,0,0,0,0,0,0,1,0,1,1,1,0,0,1],[1,0,1,0,1,1,0,1,1,0,0,0,0,1,0,0,0,1,1,0]],"gridR":[[0,1,1,1,0,1,0,1,0,0,0,1,1,0,0,1,1,0,0,1],[0,0,1,0,0,0,1,1,0,1,0,0,0,1,1,1,1,0,0,1],[0,0,0,0,1,0,0,0,0,0,1,1,1,1,0,0,1,1,1,0],[0,0,0,1,0,0,1,0,0,0,0,1,0,1,1,0,0,0,1,1],[0,1,1,0,0,0,1,1,1,0,0,1,1,1,0,1,1,0,0,1],[1,0,1,1,1,0,0,1,1,0,0,0,0,1,1,0,1,0,0,0],[0,1,1,0,0,1,0,1,1,1,1,0,1,0,0,0,1,0,1,1],[1,0,0,1,1,0,0,1,0,1,1,1,1,1,0,0,1,1,1,0],[1,1,0,0,0,0,0,1,1,0,0,1,1,1,0,0,0,0,1,1],[0,1,1,1,0,1,1,1,0,0,0,0,1,0,0,0,1,0,0,0],[0,0,0,1,0,1,1,1,0,0,0,1,1,1,1,0,1,0,1,1],[0,0,1,0,1,0,1,1,0,1,0,1,0,0,1,0,1,1,0,1],[0,0,1,0,0,1,0,0,0,1,1,1,1,0,0,1,1,1,0,0],[0,1,0,0,1,1,1,0,1,1,1,0,1,1,0,1,0,0,1,1],[1,1,0,1,0,1,1,0,0,0,1,0,0,1,1,1,1,0,0,0],[0,1,0,1,0,0,0,1,1,0,0,1,0,0,0,1,0,1,1,0],[0,1,0,0,1,0,0,0,1,1,0,1,1,0,1,1,0,0,1,1],[0,1,0,0,0,0,0,0,0,1,0,0,1,0,0,0,1,0,0,0],[1,0,1,0,0,1,0,1,0,0,1,1,0,0,0,0,0,1,0,0],[0,0,1,1,0,0,0,0,0,0,0,0,1,0,1,1,1,0,1,0]],"displayWidth":172,"displayHeight":172,"spacing":100,"style":{"gridBorderColor":"#ffffff","gridBorderWidth":"3","dotColor":"#ffffff","dotLineWidth":"1"}},"pluginResponse":[{"startTime":473773.9999999758,"rt":2209.000000031665,"response":[{"id":0,"name":"Left","answer":40,"prompt":"Left","lastChangedTime":475484.9999998696},{"id":1,"name":"Right","answer":"50","prompt":"Right","lastChangedTime":null}],"stimulusOffTime":899.9999999068677,"trial_type":"canvas-sliders-response","trial_index":18,"time_elapsed":475854,"internal_node_id":"0.0-7.0-0.3"},{"choiceTime":0,"choice":1,"totalTime":2002.000000094995,"image":"http://localhost:8080/ExploringSocialMetacognition/assets/image/advisor1.png","adviceTime":2002.000000094995,"trial_type":"jspsych-jas-present-advice-choice","trial_index":19,"time_elapsed":477857,"internal_node_id":"0.0-7.0-1.3"},{"startTime":477986.9999999646,"rt":2804.9999999348074,"response":[{"id":0,"name":"Left","answer":22,"prompt":"Left","lastChangedTime":479597.99999999814},{"id":1,"name":"Right","answer":"50","prompt":"Right","lastChangedTime":null}],"trial_type":"canvas-sliders-response","trial_index":20,"time_elapsed":480663,"internal_node_id":"0.0-7.0-2.3"}],"advisorAgrees":false},{"block":1,"advisorId":1,"choice":[],"answer":[0,0],"confidence":[61,31],"whichSide":1,"practice":true,"feedback":true,"warnings":["getConfidenceCategory: too few trials available to estimate confidence"],"stimulusDrawTime":[481693.9999999013],"stimulusOffTime":[901.0000000707805,null],"fixationDrawTime":[481192.9999999702],"id":8,"dotDifference":15,"grid":{"dotCountL":185,"dotCountR":215,"gridWidth":20,"gridHeight":20,"dotWidth":2,"dotHeight":2,"paddingX":6,"paddingY":6,"gridL":[[0,1,0,1,0,1,1,1,0,0,0,1,1,0,0,0,0,0,1,1],[0,1,1,1,0,1,0,1,0,0,0,1,1,1,1,1,1,1,1,0],[1,0,0,1,1,1,0,1,1,1,1,0,1,1,1,1,0,1,0,1],[0,0,0,1,1,1,0,0,1,1,1,1,0,0,0,1,1,0,0,1],[0,0,0,0,0,0,0,0,1,0,1,0,1,0,0,0,0,0,1,0],[1,1,1,1,1,1,1,0,0,0,1,0,0,0,1,1,1,0,1,1],[0,0,1,0,0,1,1,0,1,1,0,1,1,1,0,0,0,1,1,1],[1,0,0,1,1,0,1,0,1,1,1,0,1,0,0,0,1,0,0,1],[0,0,1,1,0,1,1,1,1,1,0,0,0,1,1,1,0,0,1,0],[0,0,0,0,0,0,1,0,0,0,0,1,1,1,1,0,0,0,0,0],[0,0,1,1,1,1,0,1,1,0,0,1,1,0,0,0,0,0,0,1],[0,0,0,0,1,0,1,1,0,1,0,0,0,0,1,1,1,1,0,1],[1,0,0,1,1,1,1,1,0,1,1,0,0,0,0,1,0,1,0,1],[0,0,0,0,0,0,0,0,0,0,0,0,0,1,0,0,1,0,1,0],[1,1,1,0,0,1,1,1,0,1,0,1,0,1,0,0,1,0,0,0],[0,0,1,0,0,0,0,1,0,0,0,0,0,1,0,0,0,0,0,1],[0,0,1,0,0,1,1,0,0,1,1,0,1,1,1,0,0,0,1,0],[1,1,1,1,1,0,1,1,0,1,1,1,1,0,0,0,1,1,1,0],[1,1,1,0,0,0,0,0,0,0,0,1,0,1,1,0,0,0,1,0],[0,0,1,0,0,1,1,1,0,1,0,1,0,0,1,1,1,0,0,0]],"gridR":[[1,0,1,1,0,0,1,1,0,0,1,1,1,0,0,1,1,1,1,1],[0,0,1,1,1,1,1,1,0,0,0,1,1,1,1,0,0,0,0,1],[1,0,1,1,0,1,0,1,1,1,0,1,0,1,1,0,1,0,0,0],[0,1,0,0,1,0,1,0,1,0,1,0,0,0,1,0,1,1,0,0],[1,0,1,0,1,1,0,0,1,1,0,1,1,0,0,1,1,1,0,1],[1,0,1,1,0,0,1,0,1,0,1,0,1,1,0,1,1,0,1,0],[1,0,1,1,0,1,0,1,1,0,0,1,0,1,0,1,1,0,1,1],[1,0,0,0,1,0,0,0,1,1,0,0,0,1,1,0,0,1,1,1],[1,1,1,0,0,0,1,1,0,0,0,0,0,1,0,1,1,0,0,0],[1,0,0,1,0,0,1,1,0,0,1,1,1,1,0,1,0,0,1,0],[0,1,0,1,1,1,0,1,1,1,0,1,1,1,0,1,0,1,0,0],[1,0,1,1,1,1,0,1,0,0,0,0,1,0,1,1,1,1,1,0],[0,1,1,0,1,1,1,1,0,0,1,0,0,0,1,1,1,0,1,1],[0,1,1,0,1,0,0,1,1,1,1,0,0,0,1,0,1,0,0,0],[0,1,1,0,1,1,1,1,1,0,1,1,0,1,1,1,0,1,0,1],[1,0,0,1,0,0,1,0,1,1,0,1,1,0,0,0,0,1,0,1],[0,0,1,1,1,0,1,1,1,0,1,1,0,1,1,0,1,0,0,1],[0,1,0,0,0,0,1,1,0,1,1,1,0,0,1,0,1,0,0,0],[0,1,1,0,0,1,1,1,1,1,1,0,1,1,0,0,0,0,1,1],[0,1,0,0,1,0,1,0,1,1,0,0,1,1,0,1,1,1,0,0]],"displayWidth":172,"displayHeight":172,"spacing":100,"style":{"gridBorderColor":"#ffffff","gridBorderWidth":"3","dotColor":"#ffffff","dotLineWidth":"1"}},"pluginResponse":[{"startTime":480993.00000001676,"rt":2335.999999893829,"response":[{"id":0,"name":"Left","answer":61,"prompt":"Left","lastChangedTime":482699.99999995343},{"id":1,"name":"Right","answer":"50","prompt":"Right","lastChangedTime":null}],"stimulusOffTime":901.0000000707805,"trial_type":"canvas-sliders-response","trial_index":21,"time_elapsed":483201,"internal_node_id":"0.0-7.0-0.4"},{"choiceTime":0,"choice":1,"totalTime":2001.9999998621643,"image":"http://localhost:8080/ExploringSocialMetacognition/assets/image/advisor1.png","adviceTime":2001.9999998621643,"trial_type":"jspsych-jas-present-advice-choice","trial_index":22,"time_elapsed":485204,"internal_node_id":"0.0-7.0-1.4"},{"startTime":485332.99999986775,"rt":1809.0000001247972,"response":[{"id":0,"name":"Left","answer":31,"prompt":"Left","lastChangedTime":486619.9999998789},{"id":1,"name":"Right","answer":"50","prompt":"Right","lastChangedTime":null}],"trial_type":"canvas-sliders-response","trial_index":23,"time_elapsed":487014,"internal_node_id":"0.0-7.0-2.4"}],"advisorAgrees":true},{"block":1,"advisorId":1,"choice":[],"answer":[0,0],"confidence":[78,56],"whichSide":0,"practice":true,"feedback":true,"warnings":["getConfidenceCategory: too few trials available to estimate confidence"],"stimulusDrawTime":[488044.9999999255],"stimulusOffTime":[900.9999998379499,null],"fixationDrawTime":[487543.9999999944],"id":9,"dotDifference":18,"grid":{"dotCountL":218,"dotCountR":182,"gridWidth":20,"gridHeight":20,"dotWidth":2,"dotHeight":2,"paddingX":6,"paddingY":6,"gridL":[[0,1,1,0,0,0,1,1,0,1,0,0,0,1,1,1,0,0,0,1],[0,1,0,1,1,1,1,1,1,1,0,1,1,0,0,0,0,1,1,0],[1,0,0,0,0,0,1,1,1,1,0,1,0,1,1,1,1,1,0,0],[1,0,0,1,0,1,1,0,1,1,1,1,1,0,1,0,1,1,1,0],[1,0,0,1,0,0,0,1,1,1,0,0,1,0,1,1,1,1,1,0],[1,1,0,1,1,0,1,0,1,0,1,0,1,1,1,1,0,1,0,1],[0,0,1,1,0,0,0,0,0,1,0,0,1,1,1,0,0,1,1,1],[1,0,1,0,0,1,1,1,1,1,1,1,1,1,1,0,1,1,1,0],[0,0,1,1,0,0,1,1,0,0,0,1,0,1,0,0,0,1,0,1],[1,1,1,1,0,0,0,0,1,1,0,0,0,0,0,0,1,1,1,1],[1,0,0,0,0,0,1,0,0,1,0,0,0,1,0,0,0,1,1,1],[1,1,1,1,0,0,0,1,0,1,1,1,1,0,1,1,0,0,1,1],[1,0,0,0,1,0,0,0,1,1,1,0,1,0,1,1,0,0,1,0],[1,0,0,0,0,1,1,1,1,0,0,0,1,0,0,1,0,1,1,1],[1,1,1,1,0,0,1,1,0,1,0,1,1,0,0,1,1,0,1,1],[1,0,1,0,0,1,1,0,1,1,0,0,0,1,1,0,1,1,0,0],[1,0,0,1,1,0,1,0,1,1,1,1,0,1,1,0,0,0,1,0],[0,1,0,1,0,1,1,1,0,1,1,1,0,0,0,1,1,0,1,1],[0,1,0,0,1,1,1,1,0,1,1,0,0,0,1,1,0,1,0,0],[1,1,1,1,0,0,1,0,1,1,1,0,1,1,0,0,0,1,0,1]],"gridR":[[0,0,0,1,0,0,1,1,0,0,0,0,1,0,1,0,1,0,1,0],[1,0,0,0,0,0,1,0,0,0,0,1,0,0,0,1,0,0,0,1],[1,0,1,0,1,1,1,0,0,1,0,0,1,1,0,0,0,0,0,1],[1,0,1,0,1,1,1,1,0,1,1,0,0,1,0,1,1,1,0,1],[1,0,1,1,0,0,1,1,1,1,0,0,0,1,1,1,1,1,0,1],[0,1,1,0,1,0,0,1,1,0,1,1,1,0,0,1,1,1,1,1],[1,0,1,0,0,1,0,1,0,0,0,1,0,1,1,0,0,1,0,1],[1,1,1,0,1,0,0,1,0,1,1,0,0,0,1,1,0,0,0,0],[0,1,1,0,1,0,0,0,0,0,0,0,0,0,0,0,0,1,1,1],[0,0,0,0,0,0,1,0,0,1,1,0,0,0,0,0,1,1,1,0],[1,0,0,1,1,1,1,1,0,0,0,0,0,1,0,0,1,0,0,1],[1,1,0,0,0,1,0,0,1,1,1,0,0,0,0,1,0,0,0,1],[1,0,0,1,0,0,0,0,0,1,0,1,1,1,0,0,1,1,1,0],[1,0,1,1,0,1,0,1,0,0,0,1,1,0,0,0,0,1,1,1],[1,0,0,0,0,0,0,1,0,1,1,1,0,0,1,1,0,0,1,1],[1,1,1,0,1,1,0,1,0,0,0,0,0,0,1,1,0,0,1,1],[0,1,0,0,0,0,1,1,1,1,0,0,1,0,1,0,0,0,0,0],[1,0,1,1,0,1,1,0,1,0,0,0,1,1,1,1,0,0,1,0],[1,1,1,1,0,0,0,1,1,0,0,0,1,1,0,1,0,1,0,0],[1,1,1,1,1,1,0,1,0,0,0,1,0,0,0,1,0,0,0,0]],"displayWidth":172,"displayHeight":172,"spacing":100,"style":{"gridBorderColor":"#ffffff","gridBorderWidth":"3","dotColor":"#ffffff","dotLineWidth":"1"}},"pluginResponse":[{"startTime":487344.000000041,"rt":2008.9999998454005,"response":[{"id":0,"name":"Left","answer":78,"prompt":"Left","lastChangedTime":488854.9999999814},{"id":1,"name":"Right","answer":"50","prompt":"Right","lastChangedTime":null}],"stimulusOffTime":900.9999998379499,"trial_type":"canvas-sliders-response","trial_index":24,"time_elapsed":489225,"internal_node_id":"0.0-7.0-0.5"},{"choiceTime":0,"choice":1,"totalTime":2001.9999998621643,"image":"http://localhost:8080/ExploringSocialMetacognition/assets/image/advisor1.png","adviceTime":2001.9999998621643,"trial_type":"jspsych-jas-present-advice-choice","trial_index":25,"time_elapsed":491227,"internal_node_id":"0.0-7.0-1.5"},{"startTime":491355.99999991246,"rt":1336.0000001266599,"response":[{"id":0,"name":"Left","answer":56,"prompt":"Left","lastChangedTime":492186.99999991804},{"id":1,"name":"Right","answer":"50","prompt":"Right","lastChangedTime":null}],"trial_type":"canvas-sliders-response","trial_index":26,"time_elapsed":492563,"internal_node_id":"0.0-7.0-2.5"}],"advisorAgrees":false},{"block":1,"advisorId":1,"choice":[],"answer":[1,1],"confidence":[5,30],"whichSide":1,"practice":true,"feedback":true,"warnings":["getConfidenceCategory: too few trials available to estimate confidence"],"stimulusDrawTime":[493592.99999987707],"stimulusOffTime":[900.0000001396984,null],"fixationDrawTime":[493092.99999987707],"id":10,"dotDifference":18,"grid":{"dotCountL":182,"dotCountR":218,"gridWidth":20,"gridHeight":20,"dotWidth":2,"dotHeight":2,"paddingX":6,"paddingY":6,"gridL":[[0,1,1,0,1,1,1,1,0,1,0,1,1,1,0,0,0,0,0,0],[0,0,1,0,0,0,1,0,0,1,0,1,0,1,1,1,0,1,0,0],[1,0,0,1,1,0,1,0,1,1,1,1,0,0,0,0,0,1,1,1],[1,1,0,0,0,0,1,0,1,0,1,0,1,0,0,1,1,1,0,1],[1,0,0,1,0,1,1,0,1,0,1,1,1,0,1,0,1,0,1,0],[1,0,1,0,1,0,0,0,1,1,0,0,0,0,1,1,0,0,0,0],[0,0,0,1,0,1,1,1,0,1,0,0,1,1,1,0,1,0,1,1],[0,0,1,1,0,0,0,1,0,1,1,0,0,1,1,1,0,1,1,0],[1,0,0,1,0,0,1,1,0,0,0,0,0,0,1,0,0,1,0,1],[0,0,0,0,0,1,0,0,1,0,1,0,1,1,0,0,1,1,1,0],[1,1,0,1,1,0,1,1,1,1,1,0,0,0,0,0,1,0,1,0],[0,1,0,1,1,0,1,0,0,1,0,1,0,1,1,0,0,0,1,0],[1,1,1,0,1,1,0,1,0,0,0,1,0,1,0,0,0,1,0,1],[1,1,1,1,1,1,1,0,1,1,1,1,0,0,0,1,1,0,0,0],[1,1,0,1,0,0,1,0,0,0,0,1,0,1,0,0,0,0,1,0],[0,1,1,1,0,0,0,1,1,0,1,0,0,0,0,0,0,0,0,0],[0,0,0,0,1,0,0,1,0,0,0,1,0,0,0,0,1,0,1,0],[1,0,1,1,0,0,1,1,0,0,1,1,0,0,1,1,0,0,1,1],[0,1,1,0,1,0,0,0,0,1,0,0,0,0,1,1,1,0,1,0],[0,0,1,1,1,0,0,1,0,1,0,1,1,0,1,0,1,0,0,0]],"gridR":[[1,1,0,1,1,1,0,0,1,1,0,0,1,1,1,0,1,1,1,0],[1,0,1,1,0,1,0,0,0,0,1,1,0,0,1,0,0,1,0,0],[1,0,1,1,1,1,0,0,1,1,0,1,1,0,0,0,1,0,0,1],[1,0,0,0,0,1,0,1,1,1,0,0,1,1,0,0,1,1,1,1],[1,0,1,1,1,0,0,1,0,1,0,1,1,0,0,1,0,1,1,1],[1,0,0,0,0,1,1,0,1,1,0,1,1,1,1,0,1,0,1,1],[1,1,1,1,1,0,1,0,1,1,0,0,0,0,0,1,1,1,0,1],[1,0,1,0,0,0,0,1,1,0,1,0,1,0,1,0,0,1,0,0],[1,1,1,1,1,0,0,0,1,0,1,0,0,0,0,1,1,0,0,1],[0,1,1,0,1,1,0,0,1,0,1,1,0,0,1,1,1,1,1,1],[0,0,1,0,0,1,1,0,0,0,0,0,1,0,0,0,1,0,1,1],[0,0,1,0,0,0,1,0,1,0,1,1,1,0,0,0,0,1,0,1],[0,1,1,1,1,0,1,1,1,0,0,1,1,0,1,1,0,1,0,0],[1,1,1,0,1,1,0,0,0,1,1,1,0,1,0,1,1,1,1,1],[0,1,1,0,0,1,1,1,0,0,0,1,1,0,0,1,1,0,0,0],[1,1,0,0,1,1,1,0,1,0,1,1,0,1,1,0,0,1,0,1],[1,0,1,1,1,0,1,1,0,0,1,0,0,0,0,0,1,1,0,1],[0,0,0,1,0,1,1,0,1,1,1,1,0,0,0,0,0,1,1,1],[1,0,1,1,1,1,1,0,1,1,1,1,1,0,0,1,1,1,1,1],[1,0,0,0,0,1,1,1,1,0,0,1,1,1,0,0,1,1,0,0]],"displayWidth":172,"displayHeight":172,"spacing":100,"style":{"gridBorderColor":"#ffffff","gridBorderWidth":"3","dotColor":"#ffffff","dotLineWidth":"1"}},"pluginResponse":[{"startTime":492892.99999992363,"rt":2457.0000001695007,"response":[{"id":0,"name":"Left","answer":50,"prompt":"Left","lastChangedTime":null},{"id":1,"name":"Right","answer":"5","prompt":"Right","lastChangedTime":494857.00000007637}],"stimulusOffTime":900.0000001396984,"trial_type":"canvas-sliders-response","trial_index":27,"time_elapsed":495221,"internal_node_id":"0.0-7.0-0.6"},{"choiceTime":0,"choice":1,"totalTime":2001.9999998621643,"image":"http://localhost:8080/ExploringSocialMetacognition/assets/image/advisor1.png","adviceTime":2001.9999998621643,"trial_type":"jspsych-jas-present-advice-choice","trial_index":28,"time_elapsed":497223,"internal_node_id":"0.0-7.0-1.6"},{"startTime":497352.9999998864,"rt":1577.0000000484288,"response":[{"id":0,"name":"Left","answer":50,"prompt":"Left","lastChangedTime":null},{"id":1,"name":"Right","answer":"30","prompt":"Right","lastChangedTime":498347.99999999814}],"trial_type":"canvas-sliders-response","trial_index":29,"time_elapsed":498801,"internal_node_id":"0.0-7.0-2.6"}],"advisorAgrees":true},{"block":1,"advisorId":1,"choice":[],"answer":[1,1],"confidence":[8,35],"whichSide":1,"practice":true,"feedback":true,"warnings":["getConfidenceCategory: too few trials available to estimate confidence"],"stimulusDrawTime":[499831.0000000056],"stimulusOffTime":[899.9999999068677,null],"fixationDrawTime":[499331.0000000056],"id":11,"dotDifference":15,"grid":{"dotCountL":185,"dotCountR":215,"gridWidth":20,"gridHeight":20,"dotWidth":2,"dotHeight":2,"paddingX":6,"paddingY":6,"gridL":[[1,0,0,0,0,0,1,0,0,1,0,0,0,0,1,0,0,0,0,1],[0,1,1,0,0,0,1,1,0,0,0,0,0,1,0,0,1,1,0,1],[1,1,0,1,0,0,0,0,1,1,0,1,1,0,1,1,0,1,0,0],[0,1,0,1,0,1,1,1,0,0,0,1,1,1,1,1,1,1,0,0],[0,1,0,0,0,0,0,1,1,1,1,0,1,0,0,0,0,0,0,1],[1,1,1,0,1,0,0,0,1,1,1,1,0,1,1,1,1,0,0,1],[0,1,0,0,0,1,0,1,0,1,0,1,0,1,1,0,1,0,1,0],[1,1,0,0,0,0,0,1,1,0,1,0,0,0,0,0,0,1,1,0],[0,1,1,1,0,1,0,0,0,0,1,1,0,1,1,1,0,1,0,0],[1,0,0,0,0,1,0,1,0,0,1,1,0,1,0,0,1,1,0,0],[0,0,0,0,0,0,1,0,1,0,0,1,0,0,0,0,0,1,1,1],[0,1,0,0,0,1,1,0,1,1,0,0,0,0,1,1,0,1,1,0],[1,1,1,1,0,0,0,1,0,1,1,0,0,1,0,0,0,1,1,1],[1,0,0,0,1,1,0,1,1,1,1,1,0,1,1,1,0,0,0,0],[1,0,1,0,1,0,0,1,1,0,0,1,0,1,1,0,0,1,0,1],[0,1,1,0,1,0,1,1,0,1,1,1,0,0,0,1,0,0,1,0],[1,0,0,0,1,0,1,0,1,1,1,0,1,0,0,0,0,1,0,0],[1,0,1,1,0,0,0,0,0,0,1,1,1,1,0,0,0,0,0,1],[1,0,0,0,1,0,1,0,0,1,0,1,1,0,1,1,1,1,1,1],[0,0,1,0,1,1,1,0,0,0,0,1,0,1,0,1,1,1,1,1]],"gridR":[[1,0,0,0,1,1,0,1,0,1,0,1,1,0,1,0,0,1,0,1],[0,0,0,0,0,0,1,0,0,1,0,0,1,1,0,1,1,0,1,1],[0,1,0,1,0,0,1,1,0,1,1,0,0,1,1,0,1,1,1,0],[1,0,0,1,0,0,0,0,0,0,0,0,0,1,1,0,0,1,1,1],[1,0,1,1,0,0,0,0,1,0,1,1,0,1,1,1,1,1,0,0],[1,1,0,1,0,0,0,1,1,1,0,0,1,0,1,1,1,1,1,0],[1,1,0,1,1,1,0,1,1,0,0,0,1,0,1,0,1,1,0,0],[1,0,1,0,0,1,0,1,1,1,0,1,1,1,1,0,0,1,1,1],[0,1,0,1,1,1,1,0,1,0,1,0,0,1,1,0,0,0,1,0],[1,0,1,1,1,0,0,1,1,1,0,1,0,1,0,1,0,1,0,1],[1,1,0,0,0,1,1,0,0,1,0,1,0,1,1,1,1,1,0,0],[1,1,1,1,1,1,1,0,0,1,1,1,1,1,1,0,0,0,1,1],[1,0,0,1,0,1,0,0,0,0,1,0,0,1,1,1,1,0,0,1],[0,0,0,1,1,0,1,0,0,1,1,0,1,0,0,1,0,1,1,1],[1,1,1,0,0,1,0,0,1,1,1,0,1,1,1,0,0,1,1,1],[1,1,1,0,1,0,1,1,0,1,0,0,0,1,1,1,1,1,0,0],[0,0,0,1,1,1,0,1,1,1,1,0,0,1,1,1,1,1,0,0],[1,1,1,0,0,1,0,0,0,1,1,0,0,1,0,1,0,1,1,0],[1,0,0,0,0,0,0,0,0,0,0,0,1,1,1,1,1,0,1,0],[1,1,1,0,0,1,1,0,0,1,1,0,0,0,1,0,0,1,1,1]],"displayWidth":172,"displayHeight":172,"spacing":100,"style":{"gridBorderColor":"#ffffff","gridBorderWidth":"3","dotColor":"#ffffff","dotLineWidth":"1"}},"pluginResponse":[{"startTime":499131.00000005215,"rt":2613.999999826774,"response":[{"id":0,"name":"Left","answer":50,"prompt":"Left","lastChangedTime":null},{"id":1,"name":"Right","answer":"8","prompt":"Right","lastChangedTime":501171.0000000894}],"stimulusOffTime":899.9999999068677,"trial_type":"canvas-sliders-response","trial_index":30,"time_elapsed":501616,"internal_node_id":"0.0-7.0-0.7"},{"choiceTime":0,"choice":1,"totalTime":2001.9999998621643,"image":"http://localhost:8080/ExploringSocialMetacognition/assets/image/advisor1.png","adviceTime":2001.9999998621643,"trial_type":"jspsych-jas-present-advice-choice","trial_index":31,"time_elapsed":503619,"internal_node_id":"0.0-7.0-1.7"},{"startTime":503749.0000000689,"rt":1723.9999999292195,"response":[{"id":0,"name":"Left","answer":50,"prompt":"Left","lastChangedTime":null},{"id":1,"name":"Right","answer":"35","prompt":"Right","lastChangedTime":504923.99999988265}],"trial_type":"canvas-sliders-response","trial_index":32,"time_elapsed":505344,"internal_node_id":"0.0-7.0-2.7"}],"advisorAgrees":true},{"block":1,"advisorId":1,"choice":[],"answer":[0,0],"confidence":[57,77],"whichSide":0,"practice":true,"feedback":true,"warnings":["getConfidenceCategory: too few trials available to estimate confidence"],"stimulusDrawTime":[506375],"stimulusOffTime":[901.0000000707805,null],"fixationDrawTime":[505875],"id":12,"dotDifference":12,"grid":{"dotCountL":212,"dotCountR":188,"gridWidth":20,"gridHeight":20,"dotWidth":2,"dotHeight":2,"paddingX":6,"paddingY":6,"gridL":[[1,1,1,1,1,1,1,0,0,0,1,1,1,0,0,1,0,1,0,1],[1,0,0,1,0,0,1,1,1,0,1,0,1,1,1,0,1,1,1,0],[1,0,1,0,0,0,0,1,1,1,0,0,1,0,1,0,0,1,1,1],[0,1,0,1,0,0,0,0,1,1,1,0,0,0,1,0,1,1,0,1],[1,0,0,0,0,0,1,1,1,1,1,1,0,0,0,1,0,1,0,0],[1,1,1,0,1,1,1,0,0,0,1,1,0,0,0,0,0,1,1,1],[0,0,0,0,0,1,0,0,1,1,0,0,1,1,0,0,1,0,0,0],[0,1,1,1,0,0,0,1,0,1,1,1,0,0,0,1,0,1,1,0],[1,1,0,1,1,1,1,0,0,0,0,1,0,1,1,1,0,1,0,0],[0,0,1,0,1,0,1,1,1,1,0,1,1,1,1,1,1,1,1,1],[1,0,0,1,1,0,1,1,0,0,0,0,1,1,1,0,0,1,1,0],[1,1,0,1,0,0,1,0,1,1,0,1,1,0,1,1,0,0,0,0],[0,1,0,1,1,0,0,1,0,1,0,0,0,0,1,1,1,1,1,0],[0,1,0,0,1,1,1,1,0,0,1,0,1,0,0,1,1,1,1,0],[1,1,0,0,0,1,0,0,0,1,1,0,1,0,0,1,0,1,1,1],[0,1,0,0,1,0,1,0,1,1,0,1,1,0,1,0,1,0,1,1],[0,1,1,0,1,1,1,1,0,0,0,1,0,0,1,0,0,1,1,0],[1,0,0,1,1,0,1,0,0,1,1,1,1,0,0,1,0,1,0,1],[1,0,1,0,1,0,1,0,0,1,0,1,0,1,1,1,1,1,1,1],[0,1,1,0,0,0,0,1,0,1,1,1,0,1,1,0,1,1,0,0]],"gridR":[[0,0,0,0,0,1,1,1,1,1,1,1,1,0,0,0,0,0,1,0],[0,1,0,0,0,0,1,0,0,0,0,0,0,1,0,0,0,0,1,1],[1,1,0,0,1,0,0,0,0,0,1,0,1,0,1,1,0,1,1,1],[1,0,0,1,0,0,1,1,0,1,0,1,1,0,0,1,0,0,0,0],[1,0,0,1,0,0,0,1,0,0,1,0,0,0,0,1,1,0,0,1],[1,1,0,1,0,0,0,0,1,0,1,1,0,1,1,0,0,1,0,1],[1,1,1,1,0,1,1,0,1,1,0,0,0,1,0,1,1,1,1,1],[0,0,0,0,0,1,1,1,0,1,0,1,0,1,0,0,0,0,0,0],[1,1,1,1,0,0,0,1,1,0,1,0,1,0,0,0,0,1,0,1],[0,0,1,0,1,1,1,0,0,0,0,1,0,0,0,0,0,0,1,0],[1,1,1,0,1,1,0,0,1,0,1,0,0,0,0,0,0,1,1,0],[0,0,1,0,1,0,1,0,1,0,0,0,1,0,0,1,0,1,1,1],[1,1,1,1,0,1,0,1,1,1,1,0,0,0,0,1,0,1,0,0],[0,1,0,0,0,1,1,1,0,1,1,0,1,0,1,0,1,0,1,0],[0,1,1,0,0,1,1,1,1,0,0,0,1,0,0,0,0,0,1,0],[1,1,0,1,0,0,1,1,0,0,0,1,0,1,1,1,0,1,1,0],[0,0,1,1,0,1,0,0,0,1,0,1,0,1,1,0,1,0,0,1],[0,1,1,0,0,1,0,0,1,1,1,1,1,1,1,1,0,1,1,0],[0,1,1,0,0,1,1,1,1,0,1,0,1,1,1,0,0,1,0,1],[1,1,0,0,0,1,1,0,1,1,1,0,1,1,0,1,1,0,0,0]],"displayWidth":172,"displayHeight":172,"spacing":100,"style":{"gridBorderColor":"#ffffff","gridBorderWidth":"3","dotColor":"#ffffff","dotLineWidth":"1"}},"pluginResponse":[{"startTime":505673.99999988265,"rt":2656.0000001918525,"response":[{"id":0,"name":"Left","answer":57,"prompt":"Left","lastChangedTime":507770.9999999497},{"id":1,"name":"Right","answer":"50","prompt":"Right","lastChangedTime":null}],"stimulusOffTime":901.0000000707805,"trial_type":"canvas-sliders-response","trial_index":33,"time_elapsed":508202,"internal_node_id":"0.0-7.0-0.8"},{"choiceTime":0,"choice":1,"totalTime":2001.9999998621643,"image":"http://localhost:8080/ExploringSocialMetacognition/assets/image/advisor1.png","adviceTime":2001.9999998621643,"trial_type":"jspsych-jas-present-advice-choice","trial_index":34,"time_elapsed":510204,"internal_node_id":"0.0-7.0-1.8"},{"startTime":510332.99999986775,"rt":2613.0000001285225,"response":[{"id":0,"name":"Left","answer":77,"prompt":"Left","lastChangedTime":511540.99999996834},{"id":1,"name":"Right","answer":"50","prompt":"Right","lastChangedTime":null}],"trial_type":"canvas-sliders-response","trial_index":35,"time_elapsed":512817,"internal_node_id":"0.0-7.0-2.8"}],"advisorAgrees":true},{"block":1,"advisorId":1,"choice":[],"answer":[0,0],"confidence":[86,100],"whichSide":1,"practice":true,"feedback":true,"warnings":["getConfidenceCategory: too few trials available to estimate confidence"],"stimulusDrawTime":[513847.00000006706],"stimulusOffTime":[900.0000001396984,null],"fixationDrawTime":[513347.00000006706],"id":13,"dotDifference":9,"grid":{"dotCountL":191,"dotCountR":209,"gridWidth":20,"gridHeight":20,"dotWidth":2,"dotHeight":2,"paddingX":6,"paddingY":6,"gridL":[[0,1,1,0,1,1,0,1,1,0,0,1,1,1,0,0,1,1,1,0],[0,1,0,0,1,1,1,1,0,1,0,1,1,0,0,1,1,0,0,0],[1,1,0,0,0,0,0,1,1,1,0,1,0,0,1,1,1,0,1,0],[0,0,1,0,1,0,1,0,1,0,0,1,0,0,1,0,0,1,0,0],[0,1,1,0,0,0,0,0,0,1,0,1,1,1,1,0,0,1,1,0],[0,1,1,0,0,1,1,1,1,1,1,0,1,1,0,0,1,0,0,1],[1,0,0,1,0,1,1,0,1,0,0,1,1,0,0,0,1,1,1,1],[0,1,1,1,0,1,1,1,1,1,1,0,1,0,1,0,0,0,1,0],[0,0,0,1,0,1,1,1,0,1,0,1,0,1,0,0,0,1,0,1],[0,1,0,1,1,0,0,1,0,0,0,0,0,0,0,1,1,1,0,0],[0,0,1,1,0,0,1,1,0,0,0,0,1,1,1,1,0,1,1,0],[0,0,0,0,0,1,1,0,0,1,0,1,1,0,1,1,0,1,1,0],[1,0,1,1,1,0,0,0,1,1,0,1,0,1,0,1,1,0,0,0],[0,0,0,0,0,0,0,0,1,1,1,1,1,1,1,0,0,1,0,0],[1,0,0,1,0,0,0,0,0,0,1,1,1,0,0,1,1,1,0,0],[1,0,0,1,0,1,1,1,1,0,0,0,1,1,1,0,1,1,0,1],[0,0,0,1,1,0,0,0,0,1,0,1,1,1,0,0,0,1,1,1],[1,0,0,1,1,0,0,1,0,0,0,0,0,0,0,0,0,0,0,0],[1,0,1,0,0,0,0,1,1,0,1,1,0,1,0,0,1,1,1,1],[1,1,0,1,0,0,1,1,1,0,1,1,0,0,1,1,0,0,0,1]],"gridR":[[1,1,1,1,0,1,0,0,0,1,0,0,1,1,0,1,0,1,1,0],[1,0,1,0,0,0,0,0,0,0,1,0,1,0,1,1,1,0,1,0],[0,1,1,1,1,1,1,1,0,1,1,1,0,1,1,0,0,1,1,0],[0,0,0,1,1,0,1,0,0,0,0,1,0,0,1,0,1,1,1,0],[0,0,1,1,0,0,0,0,0,0,1,1,1,0,0,0,0,0,0,0],[1,0,1,0,1,0,1,0,0,0,0,0,0,0,1,0,1,1,0,1],[1,1,0,1,0,0,1,0,1,0,1,0,0,1,1,0,0,1,1,1],[1,0,0,0,1,0,1,1,1,0,0,0,1,1,1,1,1,1,1,1],[1,1,1,1,0,1,1,1,0,0,1,1,0,1,1,1,0,0,1,0],[0,1,1,0,1,0,0,0,1,0,0,0,0,1,1,0,0,1,1,1],[1,1,1,0,1,1,1,0,1,0,0,0,0,1,1,1,0,0,1,0],[0,1,1,0,0,1,0,1,0,0,1,1,1,0,1,1,1,1,0,0],[0,1,0,0,1,0,1,0,1,1,0,0,1,0,1,0,1,1,0,0],[1,0,0,1,1,1,1,1,1,0,1,0,0,1,1,0,0,1,0,0],[1,0,1,1,0,0,0,0,1,1,0,1,0,1,1,1,0,0,0,0],[1,0,1,0,0,1,0,1,1,1,1,1,1,1,0,0,1,1,1,1],[0,0,1,1,0,1,1,1,1,0,0,1,1,0,1,0,0,0,1,0],[0,0,0,1,1,0,0,0,0,1,1,1,0,1,1,1,1,0,1,0],[0,1,0,1,0,1,1,1,0,0,1,1,1,0,1,1,1,1,0,0],[1,0,0,0,1,1,0,1,1,0,0,0,0,1,1,1,1,1,1,1]],"displayWidth":172,"displayHeight":172,"spacing":100,"style":{"gridBorderColor":"#ffffff","gridBorderWidth":"3","dotColor":"#ffffff","dotLineWidth":"1"}},"pluginResponse":[{"startTime":513146.9999998808,"rt":2362.0000001974404,"response":[{"id":0,"name":"Left","answer":86,"prompt":"Left","lastChangedTime":514979.9999999814},{"id":1,"name":"Right","answer":"50","prompt":"Right","lastChangedTime":null}],"stimulusOffTime":900.0000001396984,"trial_type":"canvas-sliders-response","trial_index":36,"time_elapsed":515381,"internal_node_id":"0.0-7.0-0.9"},{"choiceTime":0,"choice":1,"totalTime":2001.9999998621643,"image":"http://localhost:8080/ExploringSocialMetacognition/assets/image/advisor1.png","adviceTime":2001.9999998621643,"trial_type":"jspsych-jas-present-advice-choice","trial_index":37,"time_elapsed":517383,"internal_node_id":"0.0-7.0-1.9"},{"startTime":517511.9999998715,"rt":1672.000000020489,"response":[{"id":0,"name":"Left","answer":100,"prompt":"Left","lastChangedTime":518479.0000000503},{"id":1,"name":"Right","answer":"50","prompt":"Right","lastChangedTime":null}],"trial_type":"canvas-sliders-response","trial_index":38,"time_elapsed":519055,"internal_node_id":"0.0-7.0-2.9"}],"advisorAgrees":false},{"block":1,"advisorId":1,"choice":[],"answer":[0,0],"confidence":[13,37],"whichSide":0,"practice":true,"feedback":true,"warnings":["getConfidenceCategory: too few trials available to estimate confidence"],"stimulusDrawTime":[520087.00000005774],"stimulusOffTime":[900.0000001396984,null],"fixationDrawTime":[519587.00000005774],"id":14,"dotDifference":12,"grid":{"dotCountL":212,"dotCountR":188,"gridWidth":20,"gridHeight":20,"dotWidth":2,"dotHeight":2,"paddingX":6,"paddingY":6,"gridL":[[0,0,1,1,1,1,1,0,1,0,1,1,1,0,0,1,1,0,1,0],[1,0,1,0,0,0,1,1,0,1,0,1,1,1,0,0,1,0,0,0],[0,1,0,1,0,1,1,0,1,1,0,0,0,0,1,1,1,1,0,1],[1,1,1,0,0,0,0,1,1,1,0,0,1,0,0,1,1,1,0,1],[0,0,0,0,0,1,0,1,0,1,1,0,0,1,1,1,0,1,1,1],[0,1,1,1,1,0,0,0,1,0,1,0,0,1,1,0,1,1,1,0],[0,0,0,0,0,0,1,1,0,0,0,0,0,1,0,0,1,1,0,0],[0,0,0,0,0,0,1,0,0,1,0,0,0,1,1,1,1,0,1,0],[0,1,0,0,1,1,1,0,1,0,1,0,0,1,1,0,1,1,0,0],[1,0,0,0,1,1,1,1,1,1,1,1,1,1,1,1,0,1,1,1],[0,0,1,0,0,1,0,1,0,1,0,0,1,0,1,1,1,1,1,0],[1,0,1,0,0,1,1,1,1,1,1,0,1,1,1,0,1,0,1,1],[0,0,0,1,1,1,1,0,1,0,0,1,1,0,1,0,0,1,1,0],[0,0,0,1,0,1,1,0,0,0,1,1,0,1,0,0,1,1,1,0],[1,1,1,0,0,0,1,1,1,1,1,0,0,0,0,1,0,1,1,1],[0,1,1,1,1,1,1,1,1,0,1,1,1,1,0,0,1,1,1,1],[0,1,0,0,1,0,0,0,1,0,0,0,1,0,1,1,1,1,1,1],[0,0,1,0,1,0,1,0,0,1,0,1,0,0,0,0,1,0,0,0],[0,0,1,1,1,1,0,1,0,1,0,1,1,0,0,1,1,1,1,0],[1,0,1,1,1,1,1,0,1,0,1,1,1,0,0,0,1,0,0,0]],"gridR":[[0,0,1,0,0,0,0,0,1,0,0,1,1,1,1,0,1,1,0,0],[1,1,1,0,1,1,1,1,0,0,1,0,1,1,0,0,0,1,0,0],[0,0,1,1,0,0,0,0,1,1,0,1,0,1,1,0,0,0,1,0],[0,1,0,1,0,1,0,1,0,0,0,0,0,1,0,0,0,0,1,0],[0,1,0,0,1,1,1,1,0,1,1,0,1,1,1,1,0,0,1,1],[0,1,0,0,1,0,1,1,1,1,0,1,0,1,1,1,1,0,0,0],[0,0,0,0,0,0,1,0,0,1,0,1,0,1,0,0,1,0,1,0],[1,0,0,0,1,1,0,0,0,0,0,1,0,0,0,0,0,1,1,0],[0,1,1,1,1,1,0,1,1,0,1,0,0,1,0,1,0,1,1,0],[1,1,0,1,1,1,0,0,0,0,0,1,0,1,1,1,0,1,0,0],[1,1,1,0,1,0,0,0,1,0,1,0,1,1,1,0,1,0,1,0],[1,0,1,0,0,0,1,0,0,1,0,0,0,0,1,1,1,0,0,0],[0,1,0,1,0,0,0,0,1,1,0,0,0,0,0,0,0,0,0,0],[1,1,1,0,0,1,0,1,0,0,1,0,1,0,0,1,0,0,1,1],[1,1,1,1,1,1,0,1,1,0,1,0,1,1,0,0,0,0,0,1],[0,1,0,0,0,0,1,1,0,0,1,0,1,0,1,1,0,1,1,0],[1,1,0,1,1,1,0,1,1,0,0,1,0,1,0,0,1,1,0,1],[1,1,1,0,1,1,1,0,1,0,0,1,1,0,0,0,0,0,1,1],[0,0,0,0,1,0,1,1,1,0,0,0,1,1,1,1,0,1,1,0],[0,0,1,0,1,1,1,1,0,0,1,0,1,0,1,0,1,1,0,1]],"displayWidth":172,"displayHeight":172,"spacing":100,"style":{"gridBorderColor":"#ffffff","gridBorderWidth":"3","dotColor":"#ffffff","dotLineWidth":"1"}},"pluginResponse":[{"startTime":519386.9999998715,"rt":2462.000000057742,"response":[{"id":0,"name":"Left","answer":13,"prompt":"Left","lastChangedTime":521341.999999946},{"id":1,"name":"Right","answer":"50","prompt":"Right","lastChangedTime":null}],"stimulusOffTime":900.0000001396984,"trial_type":"canvas-sliders-response","trial_index":39,"time_elapsed":521721,"internal_node_id":"0.0-7.0-0.10"},{"choiceTime":0,"choice":1,"totalTime":2001.9999998621643,"image":"http://localhost:8080/ExploringSocialMetacognition/assets/image/advisor1.png","adviceTime":2001.9999998621643,"trial_type":"jspsych-jas-present-advice-choice","trial_index":40,"time_elapsed":523723,"internal_node_id":"0.0-7.0-1.10"},{"startTime":523851.9999999553,"rt":1344.0000000409782,"response":[{"id":0,"name":"Left","answer":37,"prompt":"Left","lastChangedTime":524602.9999998864},{"id":1,"name":"Right","answer":"50","prompt":"Right","lastChangedTime":null}],"trial_type":"canvas-sliders-response","trial_index":41,"time_elapsed":525067,"internal_node_id":"0.0-7.0-2.10"}],"advisorAgrees":true},{"block":1,"advisorId":1,"choice":[],"answer":[1,1],"confidence":[47,84],"whichSide":1,"practice":true,"feedback":true,"warnings":["getConfidenceCategory: too few trials available to estimate confidence"],"stimulusDrawTime":[526097.9999999981],"stimulusOffTime":[899.9999999068677,null],"fixationDrawTime":[525597.9999999981],"id":15,"dotDifference":12,"grid":{"dotCountL":188,"dotCountR":212,"gridWidth":20,"gridHeight":20,"dotWidth":2,"dotHeight":2,"paddingX":6,"paddingY":6,"gridL":[[0,0,0,1,0,0,1,0,1,0,1,0,0,0,1,0,0,0,1,1],[1,1,1,1,0,0,1,0,1,1,0,0,1,0,1,0,0,0,0,0],[0,0,0,1,0,0,1,0,0,1,1,1,0,0,1,0,1,1,1,0],[1,1,0,0,0,1,0,0,1,0,0,1,0,1,1,0,1,1,0,1],[1,0,0,1,1,1,0,1,1,1,1,0,1,1,0,0,0,1,0,1],[0,1,1,1,1,0,1,0,0,1,1,1,0,0,0,0,1,0,0,0],[0,1,0,1,0,0,0,0,1,1,1,0,0,0,1,0,1,0,0,1],[0,0,1,0,1,1,0,1,0,0,0,1,0,1,1,1,1,0,0,1],[1,0,0,0,1,1,1,1,0,1,1,1,0,0,0,0,0,0,0,1],[0,1,0,1,1,0,0,1,0,0,0,1,1,0,0,1,1,1,0,1],[1,1,1,1,0,0,1,1,1,0,0,1,1,1,1,0,1,0,0,0],[1,1,1,1,1,1,1,0,1,1,0,1,0,0,1,1,0,1,0,0],[1,0,0,0,0,1,0,1,0,0,1,1,0,1,1,1,0,0,0,1],[1,0,0,0,1,1,0,0,0,1,0,1,1,0,1,0,1,0,0,0],[1,1,1,1,1,0,0,0,0,0,0,1,1,1,0,0,1,1,0,0],[1,0,1,0,1,0,0,0,0,1,0,0,0,0,0,1,1,0,0,1],[1,0,0,0,0,0,0,1,0,0,1,0,0,1,1,0,0,0,0,0],[0,0,1,1,0,1,0,0,1,0,1,1,1,0,1,0,1,1,1,0],[0,0,0,1,0,1,0,1,0,1,0,0,0,0,0,1,1,1,1,1],[1,1,1,0,0,1,1,1,0,1,1,1,0,0,0,0,1,0,1,0]],"gridR":[[0,0,1,1,0,0,0,0,1,1,0,1,0,0,0,1,0,1,0,0],[1,1,1,0,0,0,0,1,1,1,0,1,0,0,1,0,1,1,1,1],[1,1,0,1,1,0,0,0,1,0,0,0,0,1,1,0,0,1,1,1],[0,1,0,1,0,0,1,1,1,0,0,0,1,1,1,0,0,0,1,0],[1,0,1,1,1,1,1,0,1,0,1,0,0,1,0,1,0,0,0,0],[1,1,0,1,1,0,0,0,0,0,1,1,1,0,0,1,1,0,0,0],[1,0,0,0,0,0,1,1,1,1,0,1,0,1,1,1,0,1,0,1],[1,1,1,0,0,0,0,0,1,1,1,1,0,0,1,0,1,1,0,0],[0,1,0,0,0,1,0,0,1,1,1,0,1,1,1,0,1,0,0,0],[1,0,1,0,1,0,0,1,1,0,1,1,1,0,0,1,1,1,0,0],[1,1,1,1,1,0,0,0,1,1,1,1,0,1,1,0,0,1,0,0],[1,1,0,1,1,1,1,1,0,0,1,0,0,1,1,1,1,0,1,1],[1,0,0,0,1,0,1,0,0,0,1,1,0,0,0,1,0,1,0,1],[1,1,0,0,0,1,0,0,0,1,0,1,0,1,0,0,1,1,1,1],[0,0,0,0,0,1,1,1,1,0,1,0,0,1,1,1,1,0,1,1],[0,0,1,0,1,0,0,1,1,1,1,1,0,1,1,1,1,0,0,1],[0,1,0,1,0,0,0,1,1,0,0,0,0,1,1,0,1,1,1,1],[1,1,1,1,0,1,1,1,0,1,1,0,0,0,1,1,0,1,1,0],[1,1,1,1,1,0,1,1,1,0,1,1,0,1,0,0,0,1,0,0],[0,1,0,1,0,1,1,0,1,1,1,0,1,0,1,0,1,1,0,1]],"displayWidth":172,"displayHeight":172,"spacing":100,"style":{"gridBorderColor":"#ffffff","gridBorderWidth":"3","dotColor":"#ffffff","dotLineWidth":"1"}},"pluginResponse":[{"startTime":525398.0000000447,"rt":2854.9999999813735,"response":[{"id":0,"name":"Left","answer":50,"prompt":"Left","lastChangedTime":null},{"id":1,"name":"Right","answer":"47","prompt":"Right","lastChangedTime":527706.9999999367}],"stimulusOffTime":899.9999999068677,"trial_type":"canvas-sliders-response","trial_index":42,"time_elapsed":528125,"internal_node_id":"0.0-7.0-0.11"},{"choiceTime":0,"choice":1,"totalTime":2002.000000094995,"image":"http://localhost:8080/ExploringSocialMetacognition/assets/image/advisor1.png","adviceTime":2002.000000094995,"trial_type":"jspsych-jas-present-advice-choice","trial_index":43,"time_elapsed":530127,"internal_node_id":"0.0-7.0-1.11"},{"startTime":530256.9999999832,"rt":1257.9999999143183,"response":[{"id":0,"name":"Left","answer":50,"prompt":"Left","lastChangedTime":null},{"id":1,"name":"Right","answer":"84","prompt":"Right","lastChangedTime":530838.9999999199}],"trial_type":"canvas-sliders-response","trial_index":44,"time_elapsed":531386,"internal_node_id":"0.0-7.0-2.11"}],"advisorAgrees":false},{"type":2,"typeName":"choice","block":2,"advisorId":3,"choice":[2,3],"answer":[1,0],"confidence":[18,5],"whichSide":0,"practice":false,"feedback":false,"warnings":["getConfidenceCategory: too few trials available to estimate confidence"],"stimulusDrawTime":[547648.9999999758],"stimulusOffTime":[902.0000000018626,null],"fixationDrawTime":[547148.9999999758],"id":16,"dotDifference":9,"grid":{"dotCountL":209,"dotCountR":191,"gridWidth":20,"gridHeight":20,"dotWidth":2,"dotHeight":2,"paddingX":6,"paddingY":6,"gridL":[[1,1,1,1,0,0,0,1,0,1,1,1,1,0,1,0,0,1,0,1],[0,1,0,0,0,1,1,1,1,1,1,0,1,1,0,1,1,0,0,0],[0,1,1,0,1,0,0,1,0,1,0,1,0,1,0,1,1,1,0,1],[1,1,1,0,0,1,0,1,1,1,1,1,0,1,1,0,0,0,0,1],[1,0,0,1,0,0,1,1,0,1,0,0,0,1,0,0,0,1,1,1],[0,0,0,1,1,1,1,1,1,0,0,1,0,1,1,0,0,0,1,1],[0,0,0,1,1,0,1,1,1,1,1,0,0,0,1,0,1,0,1,1],[0,0,1,1,0,1,0,0,0,1,1,0,0,1,0,0,1,0,0,1],[1,1,0,0,0,1,0,0,0,1,0,0,1,0,1,1,1,1,0,1],[1,1,1,0,0,1,1,0,0,1,0,0,0,1,1,0,0,0,0,1],[0,0,1,0,1,0,0,1,0,0,0,1,0,0,0,0,0,1,1,0],[1,1,0,0,1,1,0,1,0,1,1,1,0,0,0,1,0,0,0,0],[1,0,1,1,0,0,1,1,1,0,0,0,1,0,0,1,0,1,1,1],[0,1,0,0,1,1,0,0,1,1,1,1,1,0,0,0,0,1,0,0],[1,1,0,1,0,0,1,0,1,1,0,1,1,1,0,1,0,0,1,1],[0,0,0,1,1,0,1,1,1,0,0,1,1,1,1,0,1,0,0,0],[1,0,0,1,1,0,0,0,1,1,1,1,1,1,1,1,0,1,1,1],[1,1,1,1,0,1,1,1,0,1,0,0,0,0,1,1,1,0,0,1],[0,1,1,0,1,1,0,1,1,1,1,0,1,1,1,0,1,1,1,0],[1,0,1,0,1,1,1,0,0,0,0,0,0,1,1,0,1,0,0,0]],"gridR":[[1,0,0,1,0,1,1,0,1,1,1,1,0,1,0,1,0,0,0,0],[1,0,0,0,0,1,0,1,0,1,1,0,0,0,1,0,0,1,0,1],[1,0,0,0,1,1,1,0,1,0,1,0,0,0,0,1,0,1,0,0],[0,0,1,1,0,0,0,1,0,0,0,0,1,1,0,0,0,0,1,1],[1,1,1,0,1,1,1,0,0,0,1,0,1,1,0,0,0,0,1,1],[1,0,1,1,0,1,0,0,0,1,1,1,1,0,0,0,1,1,1,1],[1,0,0,1,1,0,0,1,0,0,0,0,1,1,0,0,1,1,0,0],[1,0,0,1,1,0,0,0,0,1,0,0,0,0,1,1,1,0,0,1],[1,1,0,0,0,1,0,1,0,1,1,0,0,0,1,1,0,0,1,1],[1,0,0,1,1,0,0,1,0,0,1,0,0,0,0,1,0,1,0,0],[1,0,1,0,1,0,1,1,1,1,1,0,0,0,1,1,0,0,0,1],[0,1,1,0,0,1,1,1,0,0,1,1,1,1,1,1,0,0,0,1],[0,0,1,1,0,0,0,1,1,0,1,1,1,1,0,0,1,0,1,1],[1,0,1,1,0,0,1,1,0,0,1,1,1,1,0,1,0,0,0,1],[0,0,1,0,0,0,0,0,1,0,0,1,0,0,0,1,0,0,0,0],[1,1,1,1,0,0,0,1,1,0,0,1,1,0,1,1,1,0,1,0],[0,1,0,0,0,1,0,0,0,1,1,1,0,0,1,0,1,0,1,1],[1,0,1,0,1,0,1,0,0,1,0,0,1,0,0,1,1,1,1,0],[0,0,0,1,1,0,1,1,1,1,0,1,1,1,0,1,0,0,0,1],[1,1,1,0,1,1,1,0,0,0,0,0,0,1,1,1,0,1,1,0]],"displayWidth":172,"displayHeight":172,"spacing":100,"style":{"gridBorderColor":"#ffffff","gridBorderWidth":"3","dotColor":"#ffffff","dotLineWidth":"1"}},"pluginResponse":[{"startTime":546948.0000000913,"rt":2294.999999925494,"response":[{"id":0,"name":"Left","answer":50,"prompt":"Left","lastChangedTime":null},{"id":1,"name":"Right","answer":"18","prompt":"Right","lastChangedTime":548736.0000000335}],"stimulusOffTime":902.0000000018626,"trial_type":"canvas-sliders-response","trial_index":50,"time_elapsed":549114,"internal_node_id":"0.0-13.0-0.0"},{"choiceTime":1100.0000000931323,"choice":3,"totalTime":3101.9999999552965,"image":"http://localhost:8080/ExploringSocialMetacognition/assets/image/advisor3.png","adviceTime":2001.9999998621643,"trial_type":"jspsych-jas-present-advice-choice","trial_index":51,"time_elapsed":552217,"internal_node_id":"0.0-13.0-1.0"},{"startTime":552345.9999999031,"rt":3168.999999994412,"response":[{"id":0,"name":"Left","answer":5,"prompt":"Left","lastChangedTime":554135.9999999404},{"id":1,"name":"Right","answer":"50","prompt":"Right","lastChangedTime":null}],"trial_type":"canvas-sliders-response","trial_index":52,"time_elapsed":555387,"internal_node_id":"0.0-13.0-2.0"}],"advisorAgrees":true},{"type":1,"typeName":"force","block":2,"advisorId":3,"choice":[],"answer":[0,1],"confidence":[50,12],"whichSide":1,"practice":false,"feedback":false,"warnings":["getConfidenceCategory: too few trials available to estimate confidence"],"stimulusDrawTime":[556416.9999998994],"stimulusOffTime":[900.0000001396984,null],"fixationDrawTime":[555916.9999998994],"id":17,"dotDifference":12,"grid":{"dotCountL":188,"dotCountR":212,"gridWidth":20,"gridHeight":20,"dotWidth":2,"dotHeight":2,"paddingX":6,"paddingY":6,"gridL":[[0,0,1,0,0,0,1,1,1,0,1,0,1,1,1,1,1,0,0,1],[1,0,1,1,0,0,0,1,0,1,1,1,1,1,0,1,0,1,1,0],[0,0,1,1,0,1,1,0,1,0,1,0,1,0,0,0,1,1,0,0],[0,0,1,1,0,0,1,1,0,0,0,1,1,0,1,0,0,0,1,1],[0,0,0,1,1,0,0,0,0,0,0,0,0,1,0,0,0,1,0,0],[1,0,0,0,1,0,0,1,0,1,0,0,1,1,1,1,0,0,0,0],[1,1,0,0,0,0,1,1,0,0,1,0,0,0,0,0,1,1,1,0],[0,1,0,1,0,1,1,1,0,0,1,1,0,1,1,0,1,0,1,0],[1,1,1,0,1,0,1,0,1,0,0,0,0,1,0,0,0,1,1,1],[1,0,1,0,0,0,1,0,1,0,1,0,1,0,0,0,0,0,1,1],[0,0,1,1,0,0,1,0,0,0,1,0,0,0,1,1,0,1,1,1],[1,1,1,0,1,1,1,1,1,1,0,1,0,0,0,1,0,0,0,0],[1,1,0,0,1,1,0,1,0,1,1,0,0,1,1,0,1,1,1,0],[0,0,1,1,1,0,0,1,1,1,0,1,1,0,1,1,1,0,1,0],[0,0,0,1,0,1,0,0,0,1,1,0,0,1,1,0,0,1,0,1],[0,0,0,0,0,0,1,0,0,1,0,0,0,0,0,1,1,0,1,0],[0,1,1,1,1,1,0,0,1,1,0,1,1,0,1,0,1,0,1,0],[1,0,1,0,0,0,0,1,1,0,1,0,0,1,0,1,0,0,0,0],[0,0,1,1,1,1,1,1,1,0,0,0,0,0,1,0,1,1,0,0],[0,1,1,1,0,1,1,0,1,1,1,1,1,1,1,0,0,0,0,0]],"gridR":[[0,1,0,1,1,0,1,0,1,1,0,0,1,1,1,0,0,1,0,1],[0,0,0,1,1,0,1,1,0,0,1,0,1,1,0,0,1,0,1,0],[0,0,1,1,1,0,0,0,0,1,0,0,1,1,1,0,0,1,0,1],[0,1,1,0,1,1,0,0,0,0,0,1,0,1,1,0,0,1,0,0],[1,1,1,1,0,1,0,0,0,0,0,1,0,0,0,0,1,1,1,0],[0,1,1,1,0,0,1,0,1,0,1,0,0,0,1,1,0,1,0,1],[1,1,1,0,1,0,1,0,1,1,1,0,1,0,0,0,0,0,1,1],[1,0,1,0,0,0,1,1,1,0,1,0,1,0,0,1,1,1,1,0],[1,1,0,0,0,0,1,1,0,0,0,0,0,1,1,0,1,0,0,1],[1,1,0,1,0,1,0,1,1,0,1,1,1,1,1,1,1,1,1,1],[1,1,1,0,1,1,1,0,1,1,1,1,0,0,0,1,1,0,0,0],[1,0,0,1,0,0,1,0,1,0,1,1,1,1,1,1,1,0,1,1],[1,0,1,0,0,1,0,0,1,1,0,0,1,1,1,1,1,0,1,0],[0,0,1,0,0,1,1,1,1,1,1,0,1,1,1,1,1,1,1,0],[0,1,1,0,1,1,0,1,1,0,0,0,0,1,1,0,0,1,0,0],[0,1,1,0,1,1,0,0,0,0,1,1,1,1,0,1,1,1,0,0],[0,0,1,0,0,1,0,1,1,1,1,0,1,0,0,0,0,0,1,0],[0,1,1,1,0,1,1,0,0,1,1,1,1,0,1,1,0,1,0,0],[0,0,0,1,1,0,0,1,0,1,1,1,1,0,1,0,1,0,1,1],[0,0,1,1,1,0,0,1,1,0,0,1,0,1,0,0,1,0,0,1]],"displayWidth":172,"displayHeight":172,"spacing":100,"style":{"gridBorderColor":"#ffffff","gridBorderWidth":"3","dotColor":"#ffffff","dotLineWidth":"1"}},"pluginResponse":[{"startTime":555716.999999946,"rt":2341.000000014901,"response":[{"id":0,"name":"Left","answer":50,"prompt":"Left","lastChangedTime":557561.999999918},{"id":1,"name":"Right","answer":"50","prompt":"Right","lastChangedTime":null}],"stimulusOffTime":900.0000001396984,"trial_type":"canvas-sliders-response","trial_index":53,"time_elapsed":557930,"internal_node_id":"0.0-13.0-0.1"},{"choiceTime":0,"choice":3,"totalTime":2002.000000094995,"image":"http://localhost:8080/ExploringSocialMetacognition/assets/image/advisor3.png","adviceTime":2002.000000094995,"trial_type":"jspsych-jas-present-advice-choice","trial_index":54,"time_elapsed":559932,"internal_node_id":"0.0-13.0-1.1"},{"startTime":560060.999999987,"rt":4083.000000100583,"response":[{"id":0,"name":"Left","answer":50,"prompt":"Left","lastChangedTime":560627.000000095},{"id":1,"name":"Right","answer":"12","prompt":"Right","lastChangedTime":563317.0000000391}],"trial_type":"canvas-sliders-response","trial_index":55,"time_elapsed":564015,"internal_node_id":"0.0-13.0-2.1"}],"advisorAgrees":true},{"type":1,"typeName":"force","block":2,"advisorId":2,"choice":[],"answer":[0,0],"confidence":[70,99],"whichSide":0,"practice":false,"feedback":false,"warnings":["getConfidenceCategory: too few trials available to estimate confidence"],"stimulusDrawTime":[565044.9999999255],"stimulusOffTime":[899.9999999068677,null],"fixationDrawTime":[564544.9999999255],"id":18,"dotDifference":15,"grid":{"dotCountL":215,"dotCountR":185,"gridWidth":20,"gridHeight":20,"dotWidth":2,"dotHeight":2,"paddingX":6,"paddingY":6,"gridL":[[1,1,0,0,1,1,1,0,1,0,1,0,0,1,1,0,0,1,1,0],[1,1,0,1,1,0,0,0,1,1,0,1,0,1,0,1,0,0,0,0],[1,1,1,0,0,0,1,1,1,0,1,1,1,0,1,1,0,1,1,0],[1,1,1,0,1,0,0,0,1,0,0,0,1,0,1,1,1,1,1,1],[1,0,1,0,1,1,1,1,1,0,0,1,0,0,1,0,1,0,0,1],[1,1,0,1,0,1,1,0,1,1,1,1,1,1,0,0,0,1,1,1],[0,1,1,0,0,0,1,0,1,1,0,1,1,1,1,0,0,1,0,1],[1,1,0,1,0,1,0,1,1,0,1,0,1,1,0,0,1,1,0,1],[1,0,1,0,1,1,0,1,0,1,0,1,1,0,0,1,0,1,0,0],[0,1,1,1,0,1,0,1,0,1,0,0,0,0,0,0,1,0,0,1],[1,1,1,1,0,0,0,1,0,0,0,1,1,0,0,0,0,1,0,1],[0,1,0,0,0,1,0,0,0,1,0,1,0,1,0,0,1,0,1,0],[0,0,0,0,1,1,0,1,0,1,0,1,1,1,1,0,0,1,1,1],[0,1,0,0,0,0,1,0,0,0,0,0,1,1,1,0,0,1,1,1],[0,0,1,1,0,1,1,0,1,1,1,1,1,1,1,1,1,1,1,0],[1,1,0,1,1,1,1,0,0,1,1,1,0,0,1,1,0,0,0,0],[1,0,1,0,1,1,0,1,0,0,1,0,0,0,1,1,1,0,1,1],[1,0,1,0,0,0,1,1,1,0,1,1,1,0,1,0,1,0,1,0],[0,0,1,1,1,0,0,1,1,0,0,1,0,0,1,0,1,0,1,0],[1,1,0,0,1,0,1,1,1,0,1,1,0,1,1,1,0,0,0,1]],"gridR":[[0,0,0,0,0,0,1,0,1,0,1,1,1,0,1,1,1,0,0,0],[0,1,1,1,1,0,1,1,0,0,1,1,0,0,0,0,1,1,0,1],[0,1,1,1,1,0,1,0,1,1,0,1,1,0,1,1,1,1,0,1],[0,0,0,0,1,1,1,0,1,1,0,0,0,1,0,0,0,1,1,0],[1,1,0,0,0,1,0,1,0,1,1,0,0,1,0,0,0,1,0,1],[1,0,0,1,1,1,0,1,0,0,0,1,0,1,0,0,0,0,0,1],[1,0,1,1,1,1,1,1,1,0,0,0,1,1,1,1,1,1,0,0],[0,0,1,1,1,0,1,0,0,0,0,0,1,0,1,1,1,0,1,0],[0,1,0,1,0,0,0,1,1,1,1,1,1,1,1,1,0,1,0,0],[0,1,0,0,0,0,1,0,0,1,1,0,0,0,1,1,0,0,1,0],[1,1,1,1,0,1,0,0,0,1,0,0,1,0,0,1,1,1,0,1],[1,1,0,1,1,0,1,0,0,0,1,0,1,0,0,1,1,1,1,0],[0,0,1,0,1,0,0,1,1,0,1,1,0,1,0,1,0,0,0,1],[0,1,1,0,1,0,0,1,0,1,1,0,0,0,1,0,1,1,0,1],[0,0,0,0,0,1,0,0,0,0,0,0,0,1,0,0,0,1,0,1],[1,0,0,1,0,0,0,0,0,0,1,0,0,0,0,0,1,0,1,0],[0,0,1,1,1,1,1,0,0,0,0,0,0,0,0,0,0,0,0,0],[1,0,0,0,1,0,1,0,1,0,1,0,1,0,0,0,0,0,0,1],[1,1,1,1,0,1,1,0,0,0,1,1,1,1,1,0,1,1,1,1],[1,0,0,0,1,1,0,0,1,1,0,0,0,1,1,0,0,0,0,1]],"displayWidth":172,"displayHeight":172,"spacing":100,"style":{"gridBorderColor":"#ffffff","gridBorderWidth":"3","dotColor":"#ffffff","dotLineWidth":"1"}},"pluginResponse":[{"startTime":564344.9999999721,"rt":2408.0000000540167,"response":[{"id":0,"name":"Left","answer":70,"prompt":"Left","lastChangedTime":566094.9999999721},{"id":1,"name":"Right","answer":"50","prompt":"Right","lastChangedTime":null}],"stimulusOffTime":899.9999999068677,"trial_type":"canvas-sliders-response","trial_index":56,"time_elapsed":566626,"internal_node_id":"0.0-13.0-0.2"},{"choiceTime":0,"choice":2,"totalTime":2002.000000094995,"image":"http://localhost:8080/ExploringSocialMetacognition/assets/image/advisor2.png","adviceTime":2002.000000094995,"trial_type":"jspsych-jas-present-advice-choice","trial_index":57,"time_elapsed":568628,"internal_node_id":"0.0-13.0-1.2"},{"startTime":568756.9999999832,"rt":1297.000000020489,"response":[{"id":0,"name":"Left","answer":99,"prompt":"Left","lastChangedTime":569520.0000000186},{"id":1,"name":"Right","answer":"50","prompt":"Right","lastChangedTime":null}],"trial_type":"canvas-sliders-response","trial_index":58,"time_elapsed":569926,"internal_node_id":"0.0-13.0-2.2"}],"advisorAgrees":true},{"type":2,"typeName":"choice","block":2,"advisorId":2,"choice":[2,3],"answer":[0,0],"confidence":[17,65],"whichSide":1,"practice":false,"feedback":false,"warnings":["getConfidenceCategory: too few trials available to estimate confidence"],"stimulusDrawTime":[570956.9999999367],"stimulusOffTime":[899.9999999068677,null],"fixationDrawTime":[570456.0000000056],"id":19,"dotDifference":15,"grid":{"dotCountL":185,"dotCountR":215,"gridWidth":20,"gridHeight":20,"dotWidth":2,"dotHeight":2,"paddingX":6,"paddingY":6,"gridL":[[0,1,1,0,1,0,1,1,1,1,0,1,0,1,0,1,0,1,0,1],[0,0,1,1,0,1,1,0,0,1,0,0,1,1,1,0,0,0,1,1],[0,0,0,0,0,1,1,0,1,0,0,1,1,1,0,1,1,1,0,1],[0,0,0,1,0,1,0,1,0,0,1,0,0,0,0,0,0,1,1,1],[0,0,0,1,1,1,1,1,1,1,0,0,1,0,0,1,0,1,0,0],[1,0,0,0,0,1,1,0,0,1,0,1,0,0,1,1,1,0,0,0],[0,1,1,0,1,0,0,1,0,0,0,1,1,0,1,0,1,1,1,0],[0,0,0,1,0,0,1,1,0,1,0,0,1,1,0,0,1,0,1,0],[1,1,1,0,1,1,1,0,1,0,1,0,0,1,0,1,0,0,1,0],[0,1,0,1,0,0,0,0,1,1,0,1,1,1,0,0,0,0,1,0],[0,1,1,1,0,0,1,1,0,0,1,1,0,0,1,0,1,0,0,1],[0,1,1,0,1,1,1,0,1,1,1,0,0,1,0,0,0,1,0,0],[1,1,0,1,1,0,1,0,0,1,1,1,0,1,1,0,0,1,1,0],[0,0,0,0,1,1,0,1,1,0,0,1,0,0,1,0,0,0,1,0],[0,1,0,1,0,1,1,0,1,0,0,1,0,1,1,1,1,0,1,1],[0,0,1,1,1,1,1,0,0,0,0,1,0,0,0,1,1,1,1,0],[0,0,1,0,0,1,1,1,1,0,1,1,0,0,0,1,1,0,1,0],[0,0,1,0,0,0,0,0,0,0,0,0,1,0,1,0,0,0,1,1],[1,0,0,0,1,1,1,0,0,1,1,0,0,0,0,1,0,1,0,1],[0,0,0,1,0,1,0,0,1,0,1,0,0,0,1,0,1,0,0,0]],"gridR":[[1,1,0,1,1,0,1,0,1,1,1,0,1,1,0,1,1,0,1,1],[0,0,1,1,1,0,1,1,1,1,0,0,0,1,0,1,0,1,0,1],[0,0,1,1,0,0,1,1,1,1,0,0,1,0,1,0,1,0,1,1],[0,0,1,0,0,1,1,1,1,0,1,0,0,1,0,1,1,0,1,1],[1,0,0,0,1,1,1,0,1,0,1,1,1,0,1,0,0,0,1,1],[0,0,1,1,1,0,1,1,0,1,1,0,1,0,1,0,1,1,1,1],[1,0,1,0,1,1,0,1,1,0,1,0,0,0,0,0,1,0,1,1],[1,0,0,1,1,1,1,1,1,0,0,0,1,0,0,0,0,0,0,1],[1,1,0,0,0,1,1,0,1,1,1,1,0,0,1,0,0,1,1,0],[1,1,0,1,1,0,1,0,1,0,1,1,0,1,1,0,0,0,0,0],[0,1,0,0,1,1,0,0,1,0,0,0,0,1,0,1,0,0,0,0],[0,0,1,1,1,0,0,0,0,0,1,1,0,1,1,1,1,1,0,1],[0,1,0,1,1,1,0,1,1,1,1,1,0,0,0,1,1,0,0,0],[0,1,1,0,0,0,0,1,1,0,0,1,1,1,1,0,0,0,1,1],[1,0,0,1,0,1,0,0,0,0,1,1,1,1,0,1,1,0,0,1],[1,1,1,1,0,1,0,0,0,1,1,1,1,1,0,1,1,1,1,0],[0,1,0,1,1,1,1,1,0,1,1,0,1,1,1,0,0,1,1,1],[0,0,0,0,0,0,0,1,1,0,0,0,1,1,1,0,0,0,1,0],[1,1,1,0,0,0,0,0,0,0,0,0,1,1,1,1,0,1,1,1],[1,0,1,0,1,0,1,0,0,1,0,1,0,1,0,1,1,1,1,1]],"displayWidth":172,"displayHeight":172,"spacing":100,"style":{"gridBorderColor":"#ffffff","gridBorderWidth":"3","dotColor":"#ffffff","dotLineWidth":"1"}},"pluginResponse":[{"startTime":570256.0000000522,"rt":2399.9999999068677,"response":[{"id":0,"name":"Left","answer":17,"prompt":"Left","lastChangedTime":572135.9999999404},{"id":1,"name":"Right","answer":"50","prompt":"Right","lastChangedTime":null}],"stimulusOffTime":899.9999999068677,"trial_type":"canvas-sliders-response","trial_index":59,"time_elapsed":572528,"internal_node_id":"0.0-13.0-0.3"},{"choiceTime":1813.0000000819564,"choice":2,"totalTime":3816.0000001080334,"image":"http://localhost:8080/ExploringSocialMetacognition/assets/image/advisor2.png","adviceTime":2003.000000026077,"trial_type":"jspsych-jas-present-advice-choice","trial_index":60,"time_elapsed":576345,"internal_node_id":"0.0-13.0-1.3"},{"startTime":576473.9999999292,"rt":1444.0000001341105,"response":[{"id":0,"name":"Left","answer":65,"prompt":"Left","lastChangedTime":577348.9999999292},{"id":1,"name":"Right","answer":"50","prompt":"Right","lastChangedTime":null}],"trial_type":"canvas-sliders-response","trial_index":61,"time_elapsed":577790,"internal_node_id":"0.0-13.0-2.3"}],"advisorAgrees":false},{"type":2,"typeName":"choice","block":2,"advisorId":2,"choice":[2,3],"answer":[0,0],"confidence":[77,43],"whichSide":0,"practice":false,"feedback":false,"warnings":["getConfidenceCategory: too few trials available to estimate confidence"],"stimulusDrawTime":[578818.9999999013],"stimulusOffTime":[900.0000001396984,null],"fixationDrawTime":[578318.9999999013],"id":20,"dotDifference":18,"grid":{"dotCountL":218,"dotCountR":182,"gridWidth":20,"gridHeight":20,"dotWidth":2,"dotHeight":2,"paddingX":6,"paddingY":6,"gridL":[[0,0,0,0,0,1,0,0,1,1,1,0,1,0,1,0,1,1,0,1],[0,1,0,0,0,0,1,1,1,1,0,0,0,1,1,0,1,1,0,0],[0,1,0,0,1,1,0,1,1,0,0,1,1,1,1,0,1,0,0,0],[0,0,1,1,1,0,1,1,0,1,0,0,0,0,0,1,1,1,0,1],[1,1,1,1,0,0,1,1,1,0,1,0,0,0,1,1,1,1,0,0],[1,0,1,0,1,1,0,0,0,1,1,1,1,1,1,1,1,0,1,1],[1,1,1,1,1,0,1,1,0,0,0,1,0,1,0,1,1,1,1,1],[1,1,0,0,1,1,0,1,0,1,0,0,0,0,0,0,1,1,0,1],[0,1,0,0,1,1,1,1,1,1,1,1,0,1,1,0,1,0,1,1],[1,1,1,0,1,0,1,1,1,0,1,0,1,0,0,1,0,1,1,1],[1,1,0,0,0,0,1,1,1,0,0,0,0,1,0,1,1,1,1,1],[0,1,0,0,1,1,0,1,0,0,1,0,1,0,0,0,1,0,1,0],[1,1,0,1,1,1,1,1,0,0,1,0,1,0,0,0,0,1,1,0],[0,1,1,1,1,1,0,1,1,0,0,1,1,0,1,0,1,1,0,1],[1,0,1,1,0,0,1,1,0,1,1,0,0,0,0,1,1,0,0,0],[0,1,0,1,1,0,1,0,1,1,1,1,0,0,0,1,0,0,1,1],[0,0,1,1,1,1,0,1,0,1,0,0,0,1,1,0,0,1,0,1],[0,0,1,1,0,0,1,1,1,0,1,1,1,0,0,1,0,0,0,1],[0,0,0,1,0,0,0,1,1,0,0,0,1,0,1,0,1,1,1,0],[1,0,1,1,0,1,1,0,0,1,0,1,1,1,1,0,0,1,1,1]],"gridR":[[1,0,0,1,1,1,0,0,1,1,1,0,1,0,1,1,0,1,0,1],[1,0,1,1,0,1,0,0,1,1,1,1,1,1,1,0,1,0,0,0],[1,1,0,0,0,0,0,1,0,0,1,0,0,0,0,1,1,1,0,0],[0,0,1,0,0,1,0,1,0,1,1,0,1,1,1,0,1,0,1,1],[0,0,0,0,0,1,1,0,1,1,0,1,0,0,0,0,1,0,1,1],[1,1,1,0,0,0,0,1,0,0,1,0,1,0,1,0,0,0,0,0],[0,0,1,1,0,0,0,0,0,1,1,1,1,1,0,0,0,0,0,1],[0,1,0,1,0,0,1,0,1,0,0,1,1,0,1,0,1,1,1,0],[0,0,0,1,0,1,1,1,1,0,0,0,0,1,0,0,0,0,0,1],[1,0,1,1,1,0,0,0,1,1,0,0,1,0,0,1,1,1,1,0],[0,0,1,0,0,1,0,1,0,0,0,0,0,0,1,0,1,1,1,1],[0,0,1,0,1,1,1,0,0,1,1,0,0,1,0,0,1,0,1,1],[1,0,1,1,1,0,0,0,0,0,0,1,1,1,1,0,0,0,0,1],[1,0,0,1,0,0,0,0,0,0,0,0,1,0,1,0,1,0,0,0],[0,1,0,0,0,0,1,0,1,0,0,1,1,1,0,0,0,1,1,0],[1,0,1,1,0,1,0,0,0,0,0,0,0,0,1,1,1,0,0,0],[0,0,0,1,0,1,0,1,0,1,1,0,0,0,1,1,1,0,1,1],[1,1,1,1,0,1,1,0,0,1,1,0,0,1,1,0,1,0,0,0],[0,1,1,1,0,1,0,1,1,1,0,1,0,1,0,0,1,1,1,1],[0,1,0,0,0,1,0,0,0,0,1,0,0,0,1,1,1,1,0,1]],"displayWidth":172,"displayHeight":172,"spacing":100,"style":{"gridBorderColor":"#ffffff","gridBorderWidth":"3","dotColor":"#ffffff","dotLineWidth":"1"}},"pluginResponse":[{"startTime":578118.9999999478,"rt":2185.9999999869615,"response":[{"id":0,"name":"Left","answer":77,"prompt":"Left","lastChangedTime":579781.9999998901},{"id":1,"name":"Right","answer":"50","prompt":"Right","lastChangedTime":null}],"stimulusOffTime":900.0000001396984,"trial_type":"canvas-sliders-response","trial_index":62,"time_elapsed":580176,"internal_node_id":"0.0-13.0-0.4"},{"choiceTime":1107.0000000763685,"choice":2,"totalTime":3108.9999999385327,"image":"http://localhost:8080/ExploringSocialMetacognition/assets/image/advisor2.png","adviceTime":2001.9999998621643,"trial_type":"jspsych-jas-present-advice-choice","trial_index":63,"time_elapsed":583286,"internal_node_id":"0.0-13.0-1.4"},{"startTime":583415.0000000373,"rt":1511.9999998714775,"response":[{"id":0,"name":"Left","answer":43,"prompt":"Left","lastChangedTime":584361.9999999646},{"id":1,"name":"Right","answer":"50","prompt":"Right","lastChangedTime":null}],"trial_type":"canvas-sliders-response","trial_index":64,"time_elapsed":584799,"internal_node_id":"0.0-13.0-2.4"}],"advisorAgrees":false},{"type":1,"typeName":"force","block":2,"advisorId":2,"choice":[],"answer":[0,0],"confidence":[71,100],"whichSide":0,"practice":false,"feedback":false,"warnings":["getConfidenceCategory: too few trials available to estimate confidence"],"stimulusDrawTime":[585827.0000000484],"stimulusOffTime":[899.9999999068677,null],"fixationDrawTime":[585327.0000000484],"id":21,"dotDifference":18,"grid":{"dotCountL":218,"dotCountR":182,"gridWidth":20,"gridHeight":20,"dotWidth":2,"dotHeight":2,"paddingX":6,"paddingY":6,"gridL":[[1,0,0,1,0,0,1,1,0,0,0,1,0,1,0,0,0,1,1,1],[0,1,0,1,1,0,0,0,0,1,0,0,0,0,1,1,0,0,1,0],[0,0,1,1,0,1,0,1,0,1,0,1,1,1,0,0,0,1,1,1],[0,1,0,1,1,1,0,1,1,1,0,0,0,0,1,1,0,1,0,1],[1,1,0,0,0,1,0,1,0,1,1,1,1,1,0,1,1,1,1,1],[1,1,0,1,0,1,1,1,1,0,1,1,0,0,1,1,0,0,1,1],[1,0,1,0,1,0,0,1,0,1,0,1,0,0,0,0,0,0,0,1],[0,1,1,1,0,0,1,0,0,1,0,1,1,1,0,1,1,1,1,0],[1,1,0,1,1,0,0,1,0,0,1,0,1,0,0,0,1,1,1,0],[0,1,0,1,0,1,0,0,1,1,0,1,1,1,0,0,0,1,1,0],[1,1,0,1,1,0,0,0,0,1,1,1,1,0,0,1,0,0,1,0],[1,0,1,1,0,1,0,1,1,1,1,0,0,1,1,1,0,0,1,0],[0,1,0,1,0,1,0,0,0,1,0,1,1,0,1,1,0,0,0,0],[1,0,1,1,1,0,1,1,1,1,1,1,1,0,0,0,1,0,0,1],[1,1,0,1,1,1,0,0,1,1,0,0,1,1,1,0,1,1,0,1],[1,1,1,0,0,1,0,1,0,1,1,1,0,1,0,0,1,1,0,1],[0,1,0,0,0,0,1,0,1,1,1,1,0,0,1,1,1,1,1,0],[1,1,0,1,0,0,0,1,0,0,1,0,0,0,1,1,1,1,1,1],[1,0,0,1,1,0,1,1,1,1,1,1,1,1,0,1,1,0,1,1],[1,0,0,1,0,0,0,0,1,0,1,0,1,0,1,1,1,0,0,1]],"gridR":[[1,0,0,0,1,0,1,1,1,0,0,0,0,1,1,1,0,0,0,0],[1,0,0,0,0,1,0,0,1,0,1,1,0,0,0,0,0,1,0,1],[0,1,0,0,1,0,0,0,0,0,0,0,1,0,0,0,0,0,0,0],[1,0,1,1,0,1,0,0,0,0,1,1,1,1,0,0,1,0,1,1],[0,0,1,1,1,0,0,1,1,1,1,1,0,1,0,1,1,1,0,0],[0,1,0,0,0,1,1,1,0,0,1,1,0,1,1,1,0,1,1,1],[0,0,0,0,1,0,0,0,1,0,0,0,1,0,1,1,1,1,0,0],[1,1,1,0,1,1,1,0,0,1,0,0,0,0,1,0,0,1,0,1],[0,0,1,1,1,1,0,1,1,1,1,0,1,0,1,1,0,0,0,0],[1,1,0,1,1,1,0,0,0,1,0,1,1,1,0,1,0,1,0,0],[0,1,1,0,0,0,1,1,1,1,0,0,0,0,1,0,1,0,0,0],[0,1,0,0,0,1,0,1,0,1,1,0,1,0,1,0,0,1,1,0],[1,0,0,0,1,1,1,1,0,0,1,0,1,1,1,0,0,1,0,0],[0,1,1,1,1,0,1,0,1,1,1,1,0,0,0,0,1,1,1,1],[1,0,1,0,0,0,0,1,0,1,1,0,0,0,1,0,0,0,1,0],[0,0,0,0,1,1,0,1,1,0,0,1,0,0,0,1,1,1,0,1],[0,1,0,1,0,1,1,0,1,0,1,0,1,0,0,1,1,0,0,1],[0,1,0,1,1,0,0,1,0,0,1,1,0,0,0,0,0,0,1,0],[0,0,1,0,0,1,1,0,0,1,1,0,0,0,0,1,1,0,1,1],[1,0,1,1,0,0,1,0,1,0,0,0,0,0,0,1,0,0,1,1]],"displayWidth":172,"displayHeight":172,"spacing":100,"style":{"gridBorderColor":"#ffffff","gridBorderWidth":"3","dotColor":"#ffffff","dotLineWidth":"1"}},"pluginResponse":[{"startTime":585127.000000095,"rt":2265.9999998286366,"response":[{"id":0,"name":"Left","answer":71,"prompt":"Left","lastChangedTime":586823.0000000913},{"id":1,"name":"Right","answer":"50","prompt":"Right","lastChangedTime":null}],"stimulusOffTime":899.9999999068677,"trial_type":"canvas-sliders-response","trial_index":65,"time_elapsed":587264,"internal_node_id":"0.0-13.0-0.5"},{"choiceTime":0,"choice":2,"totalTime":2001.9999998621643,"image":"http://localhost:8080/ExploringSocialMetacognition/assets/image/advisor2.png","adviceTime":2001.9999998621643,"trial_type":"jspsych-jas-present-advice-choice","trial_index":66,"time_elapsed":589268,"internal_node_id":"0.0-13.0-1.5"},{"startTime":589396.9999998808,"rt":2289.000000106171,"response":[{"id":0,"name":"Left","answer":100,"prompt":"Left","lastChangedTime":591138.0000000354},{"id":1,"name":"Right","answer":"50","prompt":"Right","lastChangedTime":null}],"trial_type":"canvas-sliders-response","trial_index":67,"time_elapsed":591558,"internal_node_id":"0.0-13.0-2.5"}],"advisorAgrees":true},{"type":2,"typeName":"choice","block":2,"advisorId":3,"choice":[2,3],"answer":[1,1],"confidence":[33,86],"whichSide":1,"practice":false,"feedback":false,"warnings":["getConfidenceCategory: too few trials available to estimate confidence"],"stimulusDrawTime":[592588.9999999199],"stimulusOffTime":[899.9999999068677,null],"fixationDrawTime":[592087.9999999888],"id":22,"dotDifference":15,"grid":{"dotCountL":185,"dotCountR":215,"gridWidth":20,"gridHeight":20,"dotWidth":2,"dotHeight":2,"paddingX":6,"paddingY":6,"gridL":[[1,0,0,1,0,1,1,1,0,0,0,1,0,1,1,1,0,1,1,1],[0,0,1,0,1,1,1,1,0,1,0,0,1,1,0,0,0,0,0,1],[0,1,1,0,0,0,0,1,1,1,1,0,0,1,1,0,1,1,1,0],[1,1,1,1,1,0,1,1,0,1,0,0,1,1,0,1,1,0,1,1],[0,0,0,1,1,0,0,0,1,1,1,0,0,1,1,0,1,1,0,1],[1,0,1,1,1,0,0,0,0,0,0,0,1,0,0,0,1,0,0,0],[1,0,1,0,0,0,1,1,0,0,0,1,0,0,0,1,0,1,0,0],[0,1,1,1,0,0,0,0,1,1,1,0,0,0,0,0,1,0,1,0],[0,1,0,1,0,1,1,0,1,0,0,1,0,0,0,1,0,0,0,0],[0,0,1,0,1,1,0,0,1,0,0,0,0,1,0,0,0,0,0,1],[1,0,0,0,1,0,0,0,1,1,1,0,0,0,1,1,1,0,1,0],[0,0,1,0,0,1,0,0,0,0,0,1,1,1,0,0,1,1,0,0],[0,1,0,1,1,1,1,1,0,0,0,0,1,0,0,0,0,1,0,1],[1,1,0,0,1,0,1,0,1,1,1,0,0,1,1,0,1,1,1,0],[1,1,0,1,1,1,0,1,1,0,0,0,1,0,1,1,1,0,1,0],[1,1,1,0,0,0,1,1,1,0,0,1,1,0,0,1,1,0,0,1],[0,0,0,0,1,0,0,1,1,0,1,0,1,0,0,0,1,0,0,0],[1,0,1,1,0,0,0,1,0,1,0,0,1,0,1,0,1,0,1,1],[0,0,0,1,0,1,1,0,0,0,1,1,1,1,1,1,1,1,0,1],[1,0,0,0,1,0,0,1,0,0,0,1,1,0,0,1,0,0,1,0]],"gridR":[[0,0,1,1,1,1,1,1,1,0,0,1,0,1,0,1,0,1,0,0],[0,1,1,1,1,0,1,0,1,0,1,0,0,1,1,0,0,1,1,0],[1,0,1,1,1,0,0,0,0,1,1,1,1,1,1,0,0,1,0,0],[1,1,1,0,0,0,0,1,1,0,1,0,1,1,1,1,1,1,1,1],[0,0,1,0,1,1,0,1,0,1,1,1,0,1,1,1,1,0,1,0],[1,1,0,1,1,0,1,1,1,1,0,1,0,0,1,1,0,0,0,0],[1,1,1,0,0,0,0,1,1,0,1,1,1,1,1,0,0,0,1,0],[0,1,0,0,0,0,1,1,1,1,1,1,1,1,0,1,1,1,1,0],[1,0,1,0,1,1,1,0,1,0,0,1,0,0,1,1,0,1,0,1],[0,0,1,1,0,1,0,0,1,0,1,1,0,1,1,1,1,1,1,0],[0,1,0,1,1,1,1,0,0,0,1,0,0,0,1,0,0,1,1,1],[0,0,0,0,0,0,0,1,1,0,1,1,1,1,1,1,0,0,0,0],[1,1,0,1,0,1,1,1,0,0,1,0,0,1,1,1,0,0,0,1],[0,1,1,0,1,0,0,1,1,0,0,0,0,0,0,1,0,0,1,1],[0,1,1,1,0,0,0,1,1,0,1,1,1,1,0,1,0,0,1,0],[0,1,0,0,0,1,0,0,0,1,0,1,0,1,0,1,1,1,0,0],[1,0,1,0,1,1,0,1,0,1,0,1,1,0,1,1,0,1,0,1],[0,0,0,0,0,0,1,1,0,1,1,1,1,0,1,1,1,1,0,0],[1,0,1,1,1,1,1,1,0,1,0,1,0,0,0,1,0,1,1,1],[0,1,1,1,0,1,0,0,0,0,0,0,0,1,0,1,0,0,0,1]],"displayWidth":172,"displayHeight":172,"spacing":100,"style":{"gridBorderColor":"#ffffff","gridBorderWidth":"3","dotColor":"#ffffff","dotLineWidth":"1"}},"pluginResponse":[{"startTime":591888.0000000354,"rt":2479.9999999813735,"response":[{"id":0,"name":"Left","answer":50,"prompt":"Left","lastChangedTime":null},{"id":1,"name":"Right","answer":"33","prompt":"Right","lastChangedTime":593790.9999999683}],"stimulusOffTime":899.9999999068677,"trial_type":"canvas-sliders-response","trial_index":68,"time_elapsed":594240,"internal_node_id":"0.0-13.0-0.6"},{"choiceTime":1399.9999999068677,"choice":3,"totalTime":3402.999999932945,"image":"http://localhost:8080/ExploringSocialMetacognition/assets/image/advisor3.png","adviceTime":2003.000000026077,"trial_type":"jspsych-jas-present-advice-choice","trial_index":69,"time_elapsed":597642,"internal_node_id":"0.0-13.0-1.6"},{"startTime":597771.9999998808,"rt":2087.000000057742,"response":[{"id":0,"name":"Left","answer":50,"prompt":"Left","lastChangedTime":null},{"id":1,"name":"Right","answer":"86","prompt":"Right","lastChangedTime":598915.0000000373}],"trial_type":"canvas-sliders-response","trial_index":70,"time_elapsed":599730,"internal_node_id":"0.0-13.0-2.6"}],"advisorAgrees":true},{"type":2,"typeName":"choice","block":2,"advisorId":2,"choice":[3,2],"answer":[0,1],"confidence":[31,0],"whichSide":0,"practice":false,"feedback":false,"warnings":["getConfidenceCategory: too few trials available to estimate confidence"],"stimulusDrawTime":[600760.0000000093],"stimulusOffTime":[899.9999999068677,null],"fixationDrawTime":[600260.0000000093],"id":23,"dotDifference":12,"grid":{"dotCountL":212,"dotCountR":188,"gridWidth":20,"gridHeight":20,"dotWidth":2,"dotHeight":2,"paddingX":6,"paddingY":6,"gridL":[[0,0,1,0,1,1,0,0,0,1,0,1,1,1,0,1,1,1,0,0],[1,1,1,0,1,0,1,0,0,1,1,1,1,0,1,0,0,0,1,1],[0,0,1,1,1,1,0,0,1,1,1,0,1,0,1,1,1,0,1,0],[0,1,1,0,0,0,0,0,0,0,1,1,1,0,1,1,0,0,0,0],[1,0,1,0,0,0,0,0,0,1,1,0,0,1,1,0,1,0,1,1],[0,1,0,0,1,1,0,1,0,0,1,1,1,0,1,0,0,0,0,1],[1,1,1,0,1,1,0,1,0,0,0,0,1,0,1,1,0,1,0,0],[1,1,1,1,1,0,1,0,0,1,1,1,0,0,0,0,1,0,1,1],[1,1,1,0,1,0,1,1,1,1,1,1,0,1,1,1,1,1,1,0],[1,1,0,0,0,0,1,1,1,0,0,0,0,1,1,1,1,0,1,1],[1,0,0,1,0,0,1,1,1,1,1,0,0,1,0,0,1,1,0,1],[0,1,1,0,1,1,1,1,0,0,1,0,1,1,1,0,1,1,0,0],[1,0,0,0,1,1,0,0,1,0,1,1,1,0,0,1,1,0,0,1],[1,0,0,1,0,1,1,1,1,1,0,1,1,0,1,0,1,1,1,0],[0,0,1,0,1,0,1,0,1,0,1,0,0,1,0,0,0,1,1,0],[1,0,1,1,0,0,0,1,1,1,1,0,0,1,0,0,1,0,1,1],[1,0,0,1,1,0,0,0,0,0,0,1,0,1,0,1,0,1,1,0],[0,1,1,1,1,0,0,1,0,1,1,0,1,0,1,0,1,1,0,0],[0,0,0,1,1,1,0,1,0,0,0,1,0,1,1,0,1,0,0,1],[1,0,1,1,1,0,0,1,1,1,0,0,1,1,1,0,0,1,0,0]],"gridR":[[1,0,0,1,1,0,0,1,1,0,0,0,1,1,0,1,1,1,1,0],[1,0,1,0,1,1,0,1,1,0,0,0,1,1,1,0,0,1,0,1],[0,0,0,1,0,1,1,0,0,1,0,1,0,0,1,1,0,1,0,0],[0,1,0,0,0,0,1,0,1,0,0,1,0,1,0,0,1,0,0,1],[1,1,0,0,1,1,1,1,0,1,0,0,0,0,1,0,1,1,1,1],[0,0,0,1,0,1,0,1,0,1,1,0,0,0,0,1,1,0,1,0],[1,1,1,1,1,1,1,1,1,1,1,0,1,1,1,1,0,1,0,0],[1,0,0,1,1,1,1,0,0,0,1,0,0,0,0,0,0,0,0,0],[1,1,0,0,0,0,0,1,0,1,1,0,0,1,0,0,1,1,0,0],[1,0,0,0,1,1,0,1,1,0,0,1,0,1,1,1,0,1,1,0],[1,0,0,0,1,0,1,0,0,0,0,1,1,1,1,0,1,0,0,1],[0,1,0,0,0,1,0,1,0,1,0,0,1,1,0,1,1,0,1,0],[1,0,0,1,1,1,1,1,1,0,1,1,1,0,1,1,0,0,0,1],[0,0,0,0,0,1,0,0,0,1,0,0,1,0,0,0,0,0,0,0],[1,0,0,1,0,0,1,1,1,1,0,1,1,0,1,0,1,0,1,0],[0,1,0,0,0,1,1,1,0,0,1,0,1,0,1,1,0,1,0,1],[0,0,0,1,0,1,0,0,0,1,0,1,1,1,0,0,0,0,0,1],[0,0,0,1,0,1,0,1,0,0,1,0,0,0,1,0,0,0,0,1],[0,1,1,0,1,1,1,0,0,1,1,0,1,1,0,1,0,1,0,1],[1,0,0,1,1,0,1,0,0,1,1,0,0,1,1,1,0,0,0,1]],"displayWidth":172,"displayHeight":172,"spacing":100,"style":{"gridBorderColor":"#ffffff","gridBorderWidth":"3","dotColor":"#ffffff","dotLineWidth":"1"}},"pluginResponse":[{"startTime":600060.0000000559,"rt":2915.999999968335,"response":[{"id":0,"name":"Left","answer":31,"prompt":"Left","lastChangedTime":602413.9999998733},{"id":1,"name":"Right","answer":"50","prompt":"Right","lastChangedTime":null}],"stimulusOffTime":899.9999999068677,"trial_type":"canvas-sliders-response","trial_index":71,"time_elapsed":602849,"internal_node_id":"0.0-13.0-0.7"},{"choiceTime":1523.0000000447035,"choice":2,"totalTime":3526.0000000707805,"image":"http://localhost:8080/ExploringSocialMetacognition/assets/image/advisor2.png","adviceTime":2003.000000026077,"trial_type":"jspsych-jas-present-advice-choice","trial_index":72,"time_elapsed":606374,"internal_node_id":"0.0-13.0-1.7"},{"startTime":606503.0000000261,"rt":2460.999999893829,"response":[{"id":0,"name":"Left","answer":50,"prompt":"Left","lastChangedTime":null},{"id":1,"name":"Right","answer":"0","prompt":"Right","lastChangedTime":608249.0000000689}],"trial_type":"canvas-sliders-response","trial_index":73,"time_elapsed":608836,"internal_node_id":"0.0-13.0-2.7"}],"advisorAgrees":false},{"type":2,"typeName":"choice","block":2,"advisorId":2,"choice":[2,3],"answer":[0,0],"confidence":[67,27],"whichSide":0,"practice":false,"feedback":false,"warnings":["getConfidenceCategory: too few trials available to estimate confidence"],"stimulusDrawTime":[609865.9999999218],"stimulusOffTime":[899.9999999068677,null],"fixationDrawTime":[609365.9999999218],"id":24,"dotDifference":9,"grid":{"dotCountL":209,"dotCountR":191,"gridWidth":20,"gridHeight":20,"dotWidth":2,"dotHeight":2,"paddingX":6,"paddingY":6,"gridL":[[1,0,1,1,0,0,0,1,1,1,0,0,1,0,1,0,1,0,1,0],[0,1,0,0,1,0,1,0,0,1,0,1,1,0,0,1,1,0,0,1],[1,0,1,0,1,1,0,1,1,0,1,0,1,1,1,1,1,0,1,0],[0,0,0,0,1,1,0,0,1,1,1,1,0,1,0,1,1,1,1,1],[1,0,1,0,1,1,0,1,0,0,1,0,0,0,0,0,1,1,1,1],[0,1,0,1,1,1,1,0,0,0,1,0,1,1,1,0,1,1,1,0],[0,0,0,1,1,1,1,0,1,0,0,1,1,1,0,0,1,1,1,0],[1,0,1,0,0,0,0,1,0,1,1,0,0,1,0,0,1,1,1,1],[0,1,0,1,0,1,0,1,1,0,0,0,0,1,0,1,0,0,1,0],[1,0,1,0,0,1,1,0,1,0,1,0,0,0,1,1,1,1,0,1],[0,0,1,0,1,1,0,0,1,0,0,1,0,1,0,0,0,1,1,1],[1,1,1,1,0,0,0,0,1,0,1,1,0,0,0,0,1,0,0,0],[0,1,1,0,1,1,0,1,1,0,0,1,0,0,1,1,0,1,1,1],[1,1,0,1,1,1,0,1,1,1,1,0,0,1,1,1,1,1,0,1],[0,0,0,0,0,0,1,0,0,0,1,0,1,0,1,1,0,1,0,1],[0,1,1,0,1,0,1,0,1,1,0,0,0,1,1,0,0,1,1,1],[0,1,0,0,1,1,0,1,0,1,1,0,1,1,1,0,0,1,0,1],[0,0,0,0,1,1,0,1,0,0,0,1,0,1,1,1,1,0,0,0],[0,0,1,0,1,0,1,1,1,1,1,0,0,0,0,0,1,0,1,1],[1,0,1,1,1,1,0,0,1,0,1,0,1,0,1,1,1,0,1,0]],"gridR":[[1,1,1,1,1,0,1,1,0,1,0,1,0,1,0,1,0,1,0,0],[0,1,0,1,0,1,1,0,0,0,0,0,1,1,0,1,0,1,0,1],[0,0,1,1,0,0,0,1,1,0,0,1,1,0,0,0,0,1,0,1],[1,1,0,1,0,1,1,1,0,1,0,0,1,1,0,1,1,1,1,0],[1,1,1,0,0,1,0,1,0,0,0,0,0,1,0,1,0,1,0,0],[0,0,0,0,0,0,1,0,0,0,1,0,0,0,0,0,0,1,1,0],[0,1,1,0,0,1,1,0,0,1,0,0,0,1,1,1,0,1,0,0],[1,0,0,0,1,1,1,0,1,0,0,0,1,1,1,0,0,1,0,0],[0,1,0,1,1,1,1,1,0,0,0,0,0,1,1,0,1,0,0,1],[1,0,1,1,1,1,0,1,0,0,1,0,0,0,0,1,0,0,0,1],[0,1,1,0,1,1,1,0,1,0,0,1,0,0,0,0,0,0,1,0],[0,0,1,1,0,1,0,1,1,0,1,0,1,0,1,1,0,1,1,0],[1,0,1,1,0,0,0,1,1,1,0,1,1,1,1,1,1,0,1,1],[0,1,0,0,0,0,0,0,1,0,0,0,0,0,1,1,1,1,1,1],[1,1,0,1,1,0,1,1,0,0,0,0,0,0,0,0,1,0,0,1],[0,0,0,1,0,0,0,0,0,0,1,1,1,0,0,0,0,1,1,1],[1,1,0,1,0,0,0,1,1,1,0,1,0,1,1,0,1,0,1,0],[1,0,0,1,0,0,0,1,1,0,1,0,0,0,1,1,1,0,1,1],[0,1,0,0,0,1,1,0,1,1,1,0,1,1,0,1,1,1,1,1],[0,1,1,0,1,0,0,0,1,0,0,0,1,1,1,0,1,1,1,0]],"displayWidth":172,"displayHeight":172,"spacing":100,"style":{"gridBorderColor":"#ffffff","gridBorderWidth":"3","dotColor":"#ffffff","dotLineWidth":"1"}},"pluginResponse":[{"startTime":609165.9999999683,"rt":2307.9999999608845,"response":[{"id":0,"name":"Left","answer":67,"prompt":"Left","lastChangedTime":610946.9999999274},{"id":1,"name":"Right","answer":"50","prompt":"Right","lastChangedTime":null}],"stimulusOffTime":899.9999999068677,"trial_type":"canvas-sliders-response","trial_index":74,"time_elapsed":611345,"internal_node_id":"0.0-13.0-0.8"},{"choiceTime":2353.0000001192093,"choice":2,"totalTime":4356.000000145286,"image":"http://localhost:8080/ExploringSocialMetacognition/assets/image/advisor2.png","adviceTime":2003.000000026077,"trial_type":"jspsych-jas-present-advice-choice","trial_index":75,"time_elapsed":615702,"internal_node_id":"0.0-13.0-1.8"},{"startTime":615831.0000000056,"rt":1142.9999999236315,"response":[{"id":0,"name":"Left","answer":27,"prompt":"Left","lastChangedTime":616415.0000000373},{"id":1,"name":"Right","answer":"50","prompt":"Right","lastChangedTime":null}],"trial_type":"canvas-sliders-response","trial_index":76,"time_elapsed":616846,"internal_node_id":"0.0-13.0-2.8"}],"advisorAgrees":false},{"type":1,"typeName":"force","block":2,"advisorId":3,"choice":[],"answer":[0,0],"confidence":[28,74],"whichSide":0,"practice":false,"feedback":false,"warnings":["getConfidenceCategory: too few trials available to estimate confidence"],"stimulusDrawTime":[617875.9999999311],"stimulusOffTime":[899.9999999068677,null],"fixationDrawTime":[617375.9999999311],"id":25,"dotDifference":6,"grid":{"dotCountL":206,"dotCountR":194,"gridWidth":20,"gridHeight":20,"dotWidth":2,"dotHeight":2,"paddingX":6,"paddingY":6,"gridL":[[1,0,1,0,1,1,0,0,0,1,1,1,1,1,1,0,0,1,0,0],[0,1,1,0,0,1,1,1,1,0,1,1,1,0,1,1,1,1,1,0],[0,1,1,1,1,0,1,0,1,1,0,0,1,1,0,1,0,1,0,1],[0,1,1,1,0,1,1,1,1,1,1,1,1,1,0,1,1,0,1,0],[1,1,0,1,0,1,0,0,0,1,1,0,1,0,1,0,1,1,1,0],[0,1,1,1,0,0,1,0,0,1,0,0,0,1,1,1,1,0,1,0],[1,0,1,1,0,0,1,1,0,0,1,1,1,1,1,1,1,1,0,0],[0,0,1,1,1,0,0,0,0,0,1,1,1,0,0,1,0,0,0,0],[0,1,0,0,0,0,0,0,0,0,1,1,1,1,1,0,0,0,1,1],[0,0,0,1,0,0,1,0,1,0,0,1,1,1,1,0,0,0,0,1],[0,1,1,0,1,1,0,1,0,1,0,1,1,0,1,0,0,1,1,1],[0,0,0,1,0,0,1,0,1,0,0,1,0,0,0,0,1,1,0,1],[1,1,0,1,0,0,0,1,0,1,0,1,0,1,0,0,0,0,1,1],[0,0,0,0,0,0,1,1,0,1,1,1,1,1,1,0,0,0,1,1],[1,0,1,0,0,0,1,0,0,0,1,1,1,0,0,0,1,0,1,0],[1,0,1,1,1,1,1,0,0,0,0,0,1,0,1,0,0,0,0,1],[0,1,1,1,1,1,0,1,0,1,0,1,0,1,1,0,1,0,0,1],[1,1,0,0,1,1,0,1,1,1,1,0,1,0,1,0,1,0,0,1],[0,0,1,1,1,0,0,1,0,0,1,0,1,1,1,0,0,1,1,0],[0,1,0,0,1,0,1,0,0,1,0,0,1,0,1,0,1,1,0,0]],"gridR":[[0,1,1,0,1,0,1,1,0,0,1,1,1,1,1,1,0,0,0,1],[0,0,1,1,0,0,1,1,1,0,0,1,1,0,0,0,0,0,1,0],[1,0,0,1,1,1,1,0,1,0,0,0,1,1,1,0,1,0,1,0],[0,1,1,1,1,1,1,1,0,1,0,1,1,1,1,1,0,0,0,0],[0,0,0,0,0,0,0,0,0,0,0,0,0,1,0,0,0,1,0,1],[0,1,0,0,0,0,0,0,1,1,0,0,0,1,0,0,1,0,1,1],[1,0,1,0,0,1,0,1,1,1,1,0,1,0,0,0,0,1,1,1],[0,0,1,0,0,0,1,1,0,0,1,1,0,0,1,0,0,0,1,1],[1,1,0,1,1,1,0,1,0,0,0,0,0,0,0,0,1,0,0,0],[0,1,0,0,0,1,0,1,0,0,0,0,1,0,1,1,1,1,0,0],[1,0,0,0,0,0,0,0,1,1,1,0,0,0,0,0,1,0,1,0],[0,0,0,1,1,0,0,1,1,1,1,0,1,1,0,1,0,0,1,0],[0,1,0,1,0,0,0,1,1,1,1,1,1,1,1,1,0,1,1,1],[1,0,0,1,1,1,1,0,1,0,1,0,1,0,1,1,0,1,0,1],[0,1,1,0,0,1,1,0,1,0,0,1,1,1,1,0,1,1,0,0],[1,1,1,1,0,0,0,1,1,0,1,1,0,0,1,0,0,0,0,1],[0,0,1,1,0,1,1,0,1,0,0,1,1,1,1,0,1,0,0,1],[0,0,1,1,1,0,0,0,1,0,1,1,0,0,0,1,1,0,0,1],[0,1,0,0,1,1,1,0,1,0,1,0,0,1,1,0,1,1,1,0],[1,1,1,0,0,1,1,0,1,0,0,0,1,1,0,0,1,1,1,1]],"displayWidth":172,"displayHeight":172,"spacing":100,"style":{"gridBorderColor":"#ffffff","gridBorderWidth":"3","dotColor":"#ffffff","dotLineWidth":"1"}},"pluginResponse":[{"startTime":617175.9999999776,"rt":3125,"response":[{"id":0,"name":"Left","answer":28,"prompt":"Left","lastChangedTime":619805.9999998659},{"id":1,"name":"Right","answer":"50","prompt":"Right","lastChangedTime":null}],"stimulusOffTime":899.9999999068677,"trial_type":"canvas-sliders-response","trial_index":77,"time_elapsed":620173,"internal_node_id":"0.0-13.0-0.9"},{"choiceTime":0,"choice":3,"totalTime":2001.9999998621643,"image":"http://localhost:8080/ExploringSocialMetacognition/assets/image/advisor3.png","adviceTime":2001.9999998621643,"trial_type":"jspsych-jas-present-advice-choice","trial_index":78,"time_elapsed":622177,"internal_node_id":"0.0-13.0-1.9"},{"startTime":622308.999999892,"rt":1602.0000001881272,"response":[{"id":0,"name":"Left","answer":74,"prompt":"Left","lastChangedTime":623217.9999998771},{"id":1,"name":"Right","answer":"50","prompt":"Right","lastChangedTime":null}],"trial_type":"canvas-sliders-response","trial_index":79,"time_elapsed":623782,"internal_node_id":"0.0-13.0-2.9"}],"advisorAgrees":true},{"type":1,"typeName":"force","block":2,"advisorId":2,"choice":[],"answer":[1,0],"confidence":[3,7],"whichSide":0,"practice":false,"feedback":false,"warnings":["getConfidenceCategory: too few trials available to estimate confidence"],"stimulusDrawTime":[624811.999999918],"stimulusOffTime":[901.0000000707805,null],"fixationDrawTime":[624311.999999918],"id":26,"dotDifference":3,"grid":{"dotCountL":203,"dotCountR":197,"gridWidth":20,"gridHeight":20,"dotWidth":2,"dotHeight":2,"paddingX":6,"paddingY":6,"gridL":[[0,1,1,1,1,0,0,0,0,0,0,1,1,1,0,1,0,0,0,1],[1,1,1,1,1,0,0,0,1,1,0,1,1,1,1,0,0,0,0,1],[0,0,1,1,0,0,1,0,1,1,0,0,0,1,1,0,0,1,1,0],[0,0,0,0,1,1,1,1,0,1,1,0,1,1,0,0,0,1,1,1],[0,0,1,1,0,0,1,1,1,0,0,0,0,1,0,1,1,1,1,0],[1,0,1,1,0,0,1,1,0,0,0,0,0,1,0,1,1,1,1,0],[1,1,1,0,0,0,0,0,1,1,0,1,1,1,0,1,0,1,1,0],[0,0,1,0,1,1,0,0,0,1,0,1,0,1,0,0,1,1,1,1],[1,0,0,1,0,0,1,1,1,1,0,1,0,0,0,1,0,1,1,1],[0,0,0,0,0,1,1,1,1,0,1,0,1,1,0,0,0,0,0,1],[1,0,1,1,1,0,0,1,1,0,0,1,0,1,1,0,1,0,1,0],[1,1,1,0,0,0,1,0,1,1,1,0,0,1,0,1,1,0,1,0],[1,0,0,0,0,1,1,1,0,0,1,0,1,1,0,1,1,0,1,1],[0,0,1,1,1,1,0,1,0,1,0,1,1,1,0,1,0,1,1,0],[1,1,1,0,1,1,0,0,0,0,1,1,0,0,1,0,1,0,1,0],[0,1,0,0,1,0,0,1,0,1,0,1,0,1,0,0,0,0,0,0],[1,1,1,0,1,1,1,0,1,0,0,0,1,0,0,0,1,0,0,0],[0,1,0,0,0,1,0,1,1,1,1,0,1,0,0,1,0,1,1,0],[1,0,1,0,0,0,0,0,0,0,1,1,1,1,0,1,1,1,1,1],[0,1,0,1,1,0,1,1,1,0,0,0,1,0,0,1,0,1,1,1]],"gridR":[[1,1,1,0,1,1,0,1,0,0,1,0,1,1,0,0,0,0,1,0],[0,1,0,1,0,1,1,1,0,0,0,1,1,1,0,1,1,0,0,1],[0,0,0,0,0,0,1,0,0,0,1,0,0,0,0,1,1,0,0,0],[1,1,0,0,1,0,0,0,1,0,1,1,0,0,0,1,0,1,0,0],[1,0,1,0,1,0,1,0,0,1,0,0,0,1,1,1,0,1,1,1],[1,1,0,1,0,1,0,0,0,1,1,0,0,0,1,0,1,1,1,1],[1,1,0,1,0,1,0,0,0,0,1,1,0,1,1,0,0,1,1,1],[1,0,0,0,0,1,0,1,0,1,0,0,0,1,1,1,0,0,1,0],[0,0,0,1,0,0,0,1,0,1,0,1,1,0,0,0,0,1,1,1],[1,1,1,1,0,0,1,1,0,1,0,0,0,1,0,0,1,1,1,0],[1,0,1,0,1,0,1,1,0,0,0,0,0,1,1,1,1,0,0,0],[1,1,1,0,0,0,0,1,0,0,1,0,1,0,0,1,1,1,0,1],[1,1,0,0,1,0,1,1,0,1,0,1,1,0,1,1,0,1,0,0],[0,0,0,1,0,0,1,0,1,1,0,1,1,0,0,1,0,0,1,1],[1,0,1,1,0,1,1,1,1,0,0,0,0,1,1,1,1,1,1,0],[0,1,1,1,1,0,1,1,1,0,0,0,1,1,0,1,1,1,0,1],[0,0,0,1,0,0,0,1,0,1,1,1,1,0,0,1,1,1,1,0],[0,0,1,0,0,1,1,1,1,0,0,1,1,1,1,1,0,1,0,1],[0,1,1,1,0,1,0,1,1,0,1,1,0,0,1,0,0,0,1,0],[0,1,0,0,1,0,0,0,1,0,1,0,0,1,0,0,1,0,0,1]],"displayWidth":172,"displayHeight":172,"spacing":100,"style":{"gridBorderColor":"#ffffff","gridBorderWidth":"3","dotColor":"#ffffff","dotLineWidth":"1"}},"pluginResponse":[{"startTime":624111.9999999646,"rt":2533.999999985099,"response":[{"id":0,"name":"Left","answer":50,"prompt":"Left","lastChangedTime":null},{"id":1,"name":"Right","answer":"3","prompt":"Right","lastChangedTime":626097.000000067}],"stimulusOffTime":901.0000000707805,"trial_type":"canvas-sliders-response","trial_index":80,"time_elapsed":626518,"internal_node_id":"0.0-13.0-0.10"},{"choiceTime":0,"choice":2,"totalTime":2002.000000094995,"image":"http://localhost:8080/ExploringSocialMetacognition/assets/image/advisor2.png","adviceTime":2002.000000094995,"trial_type":"jspsych-jas-present-advice-choice","trial_index":81,"time_elapsed":628520,"internal_node_id":"0.0-13.0-1.10"},{"startTime":628648.9999999758,"rt":1431.0000000987202,"response":[{"id":0,"name":"Left","answer":7,"prompt":"Left","lastChangedTime":629429.9999999348},{"id":1,"name":"Right","answer":"50","prompt":"Right","lastChangedTime":null}],"trial_type":"canvas-sliders-response","trial_index":82,"time_elapsed":629952,"internal_node_id":"0.0-13.0-2.10"}],"advisorAgrees":true},{"type":1,"typeName":"force","block":2,"advisorId":3,"choice":[],"answer":[0,0],"confidence":[57,74],"whichSide":0,"practice":false,"feedback":false,"warnings":["getConfidenceCategory: too few trials available to estimate confidence"],"stimulusDrawTime":[630983.9999999385],"stimulusOffTime":[899.9999999068677,null],"fixationDrawTime":[630483.0000000075],"id":27,"dotDifference":6,"grid":{"dotCountL":206,"dotCountR":194,"gridWidth":20,"gridHeight":20,"dotWidth":2,"dotHeight":2,"paddingX":6,"paddingY":6,"gridL":[[1,0,1,0,1,0,1,0,0,0,0,1,0,0,1,0,0,0,0,0],[0,1,1,0,0,0,1,0,0,1,1,0,1,1,1,0,1,0,0,0],[1,1,0,1,1,1,0,1,0,1,1,1,1,0,0,1,0,0,0,1],[0,1,1,0,0,1,1,1,0,1,1,0,1,1,0,0,1,1,0,0],[0,0,0,1,1,0,1,1,1,0,0,1,0,1,1,0,0,0,1,1],[1,1,1,1,0,1,1,1,0,0,1,1,0,1,0,1,0,1,1,0],[1,0,0,1,0,0,0,0,0,1,1,1,1,1,1,1,0,1,0,0],[0,0,1,1,0,0,0,1,1,1,1,1,0,0,1,1,0,0,1,0],[1,0,0,0,0,1,1,1,1,1,0,1,0,0,0,0,1,0,0,0],[1,1,0,0,1,0,0,1,0,1,0,1,1,1,1,1,1,0,1,1],[1,1,1,0,0,0,1,1,1,1,1,1,0,0,1,0,0,1,1,1],[0,0,1,1,1,1,1,1,1,0,1,0,0,0,0,1,1,1,0,0],[1,0,1,0,0,1,0,0,1,0,1,1,0,1,1,1,0,1,0,1],[0,0,0,0,1,1,0,0,0,1,1,0,1,1,0,1,1,0,1,1],[0,1,0,1,1,1,0,1,0,1,0,1,1,0,1,0,1,0,0,1],[1,1,0,0,1,0,0,1,0,0,1,1,0,1,1,0,0,0,1,1],[0,1,0,1,1,1,0,1,0,0,0,0,1,1,1,0,1,1,1,0],[0,1,1,0,0,0,0,0,0,1,1,1,0,1,1,1,0,0,0,0],[1,1,1,0,1,0,1,1,0,0,0,1,0,0,1,0,0,0,0,1],[0,1,1,0,1,1,0,0,0,1,1,0,1,1,0,0,1,0,1,0]],"gridR":[[0,1,0,0,0,0,1,0,0,1,0,0,0,0,0,0,1,0,1,1],[1,0,1,0,1,1,1,0,0,0,1,0,1,1,0,1,0,0,1,0],[0,1,1,0,0,1,1,1,1,0,1,0,0,1,0,0,0,0,1,1],[0,1,0,1,0,0,1,1,1,1,0,1,0,1,1,0,0,1,1,0],[1,0,1,0,0,1,0,1,0,1,0,1,1,1,1,0,1,0,1,1],[0,1,1,0,0,0,1,1,1,0,0,1,0,1,0,0,0,0,1,1],[1,1,1,1,1,1,0,1,1,1,0,0,0,1,1,1,0,0,1,0],[0,0,0,0,0,0,1,1,0,0,0,0,0,1,1,0,0,1,1,0],[0,1,1,0,1,0,1,0,0,1,1,1,1,0,1,1,0,0,1,1],[1,1,1,1,1,0,0,0,1,0,1,0,0,0,0,0,1,0,0,0],[0,0,1,0,1,0,0,1,1,1,1,1,0,0,0,1,0,0,1,1],[1,1,0,1,0,0,0,0,1,1,0,0,1,0,0,0,1,0,0,1],[0,1,0,1,1,0,1,0,1,1,1,1,1,0,0,0,0,0,0,1],[1,1,1,1,0,1,0,0,1,0,0,0,1,0,0,1,0,1,0,0],[0,0,0,0,1,0,1,0,1,1,1,0,1,0,1,0,1,0,1,0],[1,1,0,1,0,0,0,1,1,1,0,1,1,1,0,1,1,1,1,1],[1,0,1,0,0,0,0,0,1,0,1,1,0,1,0,1,0,1,1,1],[0,0,0,0,0,1,0,1,1,1,0,1,1,0,1,1,0,0,1,0],[1,0,1,0,0,0,0,0,0,1,0,1,0,1,1,0,0,0,0,0],[1,1,1,1,0,1,1,0,0,0,0,0,1,1,1,0,1,1,0,1]],"displayWidth":172,"displayHeight":172,"spacing":100,"style":{"gridBorderColor":"#ffffff","gridBorderWidth":"3","dotColor":"#ffffff","dotLineWidth":"1"}},"pluginResponse":[{"startTime":630283.000000054,"rt":2272.999999811873,"response":[{"id":0,"name":"Left","answer":57,"prompt":"Left","lastChangedTime":631939.000000013},{"id":1,"name":"Right","answer":"50","prompt":"Right","lastChangedTime":null}],"stimulusOffTime":899.9999999068677,"trial_type":"canvas-sliders-response","trial_index":83,"time_elapsed":632427,"internal_node_id":"0.0-13.0-0.11"},{"choiceTime":0,"choice":3,"totalTime":2002.000000094995,"image":"http://localhost:8080/ExploringSocialMetacognition/assets/image/advisor3.png","adviceTime":2002.000000094995,"trial_type":"jspsych-jas-present-advice-choice","trial_index":84,"time_elapsed":634429,"internal_node_id":"0.0-13.0-1.11"},{"startTime":634557.9999999609,"rt":1331.99999993667,"response":[{"id":0,"name":"Left","answer":74,"prompt":"Left","lastChangedTime":635209.0000000317},{"id":1,"name":"Right","answer":"50","prompt":"Right","lastChangedTime":null}],"trial_type":"canvas-sliders-response","trial_index":85,"time_elapsed":635762,"internal_node_id":"0.0-13.0-2.11"}],"advisorAgrees":true},{"type":2,"typeName":"choice","block":3,"advisorId":3,"choice":[3,2],"answer":[0,1],"confidence":[0,30],"whichSide":1,"practice":false,"feedback":false,"warnings":["getConfidenceCategory: too few trials available to estimate confidence"],"stimulusDrawTime":[637949.0000000224],"stimulusOffTime":[899.9999999068677,null],"fixationDrawTime":[637449.0000000224],"id":28,"dotDifference":6,"grid":{"dotCountL":194,"dotCountR":206,"gridWidth":20,"gridHeight":20,"dotWidth":2,"dotHeight":2,"paddingX":6,"paddingY":6,"gridL":[[0,1,0,0,0,0,0,1,1,1,1,0,1,1,1,1,0,0,0,1],[1,0,1,1,1,0,1,1,1,1,1,0,0,0,0,0,1,1,0,0],[0,1,0,1,1,0,1,1,0,0,1,1,1,1,1,1,0,1,1,1],[1,0,0,0,0,0,1,1,1,1,0,0,1,0,1,1,0,0,1,0],[1,0,1,0,1,0,1,1,1,0,0,0,1,1,0,0,1,0,0,0],[0,0,0,0,1,0,0,0,0,0,1,1,0,1,0,0,1,0,1,0],[1,1,0,1,1,0,1,0,1,1,0,1,0,1,0,0,1,1,0,0],[1,1,1,0,0,1,0,0,0,1,1,0,0,0,0,1,0,0,1,0],[0,1,0,0,0,0,1,1,1,0,1,1,1,0,1,0,1,0,0,1],[1,0,0,1,1,1,1,0,1,0,1,1,0,0,1,1,1,1,0,0],[0,1,0,0,1,1,0,1,0,1,1,0,1,1,0,1,0,0,0,0],[1,1,1,1,0,1,0,0,0,0,1,1,0,1,0,1,0,1,1,1],[0,1,0,0,1,0,1,1,1,1,0,0,1,1,0,0,1,0,0,0],[0,1,0,1,0,1,0,0,0,0,1,0,0,1,0,0,1,0,0,0],[1,0,0,0,1,0,0,1,0,0,0,1,1,1,0,0,1,1,0,0],[1,1,1,0,1,1,1,0,0,1,1,1,1,0,0,1,1,1,1,1],[1,1,1,0,1,0,1,0,0,1,0,1,1,1,1,1,0,0,0,1],[0,0,0,0,1,1,0,1,0,0,0,0,1,0,1,0,0,0,1,0],[1,0,1,0,0,1,1,0,1,0,0,0,0,1,0,0,1,0,1,0],[0,0,0,1,1,1,0,0,0,1,1,0,1,0,1,1,0,1,0,0]],"gridR":[[1,1,0,1,1,1,1,1,0,0,0,0,1,0,1,1,0,0,1,1],[0,0,0,1,0,1,0,0,0,0,0,0,0,1,1,0,0,0,0,1],[0,1,0,0,0,0,0,1,0,0,0,1,1,0,0,0,0,0,1,0],[0,0,0,0,0,1,1,1,0,0,1,1,0,0,1,0,1,1,1,0],[0,0,1,1,0,0,0,1,1,1,1,1,1,0,1,1,1,0,0,0],[0,0,0,1,1,0,1,1,0,0,1,0,1,0,0,0,0,0,1,0],[0,1,0,1,1,0,1,0,0,0,1,1,0,0,0,1,1,0,1,0],[1,1,0,1,0,0,1,1,1,0,0,1,0,1,0,1,0,0,1,0],[0,1,0,1,1,0,1,0,0,1,0,0,1,1,1,1,1,1,0,1],[0,0,1,1,1,0,0,1,1,0,0,1,1,0,1,1,0,1,0,1],[1,0,0,0,0,0,0,0,1,1,0,0,1,1,0,1,1,1,1,1],[0,1,1,1,1,0,1,0,0,1,0,1,1,0,0,0,1,1,1,0],[1,0,1,1,1,1,0,1,0,0,0,0,1,0,1,1,0,1,1,0],[1,1,0,1,1,1,1,0,1,1,0,1,1,0,1,0,0,0,1,0],[1,0,1,1,0,1,1,1,0,1,1,1,1,1,1,0,1,0,0,0],[1,0,0,1,1,1,0,1,1,1,1,0,0,1,0,1,0,0,0,1],[1,0,1,1,1,0,0,0,0,1,0,1,1,1,1,1,1,1,1,0],[1,1,1,0,0,0,0,0,0,1,0,1,1,0,0,0,0,0,1,0],[1,1,1,1,1,0,1,1,1,1,1,0,1,1,0,0,1,0,0,0],[0,1,0,1,0,1,1,1,1,1,1,0,0,1,1,1,0,1,1,1]],"displayWidth":172,"displayHeight":172,"spacing":100,"style":{"gridBorderColor":"#ffffff","gridBorderWidth":"3","dotColor":"#ffffff","dotLineWidth":"1"}},"pluginResponse":[{"startTime":637249.0000000689,"rt":3076.999999815598,"response":[{"id":0,"name":"Left","answer":0,"prompt":"Left","lastChangedTime":639766.9999999925},{"id":1,"name":"Right","answer":"50","prompt":"Right","lastChangedTime":null}],"stimulusOffTime":899.9999999068677,"trial_type":"canvas-sliders-response","trial_index":87,"time_elapsed":640197,"internal_node_id":"0.0-15.0-0.0"},{"choiceTime":1202.0000000484288,"choice":3,"totalTime":3204.0000001434237,"image":"http://localhost:8080/ExploringSocialMetacognition/assets/image/advisor3.png","adviceTime":2002.000000094995,"trial_type":"jspsych-jas-present-advice-choice","trial_index":88,"time_elapsed":643401,"internal_node_id":"0.0-15.0-1.0"},{"startTime":643530.999999959,"rt":1215.000000083819,"response":[{"id":0,"name":"Left","answer":50,"prompt":"Left","lastChangedTime":null},{"id":1,"name":"Right","answer":"30","prompt":"Right","lastChangedTime":644261.9999998715}],"trial_type":"canvas-sliders-response","trial_index":89,"time_elapsed":644617,"internal_node_id":"0.0-15.0-2.0"}],"advisorAgrees":true},{"type":1,"typeName":"force","block":3,"advisorId":2,"choice":[],"answer":[0,0],"confidence":[50,19],"whichSide":0,"practice":false,"feedback":false,"warnings":["getConfidenceCategory: too few trials available to estimate confidence"],"stimulusDrawTime":[645648.9999999758],"stimulusOffTime":[899.9999999068677,null],"fixationDrawTime":[645148.0000000447],"id":29,"dotDifference":9,"grid":{"dotCountL":209,"dotCountR":191,"gridWidth":20,"gridHeight":20,"dotWidth":2,"dotHeight":2,"paddingX":6,"paddingY":6,"gridL":[[0,0,1,0,1,0,1,0,1,0,1,1,0,1,0,0,0,1,0,0],[1,0,0,0,0,0,1,0,1,1,0,1,0,0,1,1,0,0,0,0],[0,1,0,1,1,1,1,0,0,0,0,0,1,1,1,0,0,1,1,1],[1,1,1,1,1,