{"participantId":1519995362329,"dotCount":200,"dotDifference":7,"difficultyStep":3,"advisors":[{"id":2,"adviceType":0,"voice":{"basePath":"","id":2,"name":"Bea","lines":{"think_left":{"filePath":"assets/audio/voices/2/think_left.wav","string":"I think it was on the LEFT","loaded":true,"loading":true,"data":null,"buffer":{},"side":0,"confidence":0},"think_right":{"filePath":"assets/audio/voices/2/think_right.wav","string":"I think it was on the RIGHT","loaded":true,"loading":true,"data":null,"buffer":{},"side":1,"confidence":0},"left_think":{"filePath":"assets/audio/voices/2/left_think.wav","string":"It was on the LEFT, I think","loaded":true,"loading":true,"data":null,"buffer":{},"side":0,"confidence":0},"right_think":{"filePath":"assets/audio/voices/2/right_think.wav","string":"It was on the RIGHT, I think","loaded":true,"loading":true,"data":null,"buffer":{},"side":1,"confidence":0},"intro":{"filePath":"assets/audio/voices/2/intro.wav","string":"Hello, my name is BEA","loaded":true,"loading":true,"data":null,"buffer":{},"side":false}}},"name":"Bea","portrait":{},"portraitSrc":"http://localhost:8080/ExploringSocialMetacognition/assets/image/advisor2.png"},{"id":3,"adviceType":1,"voice":{"basePath":"","id":3,"name":"Kate","lines":{"think_left":{"filePath":"assets/audio/voices/3/think_left.wav","string":"I think it was on the LEFT","loaded":true,"loading":true,"data":null,"buffer":{},"side":0,"confidence":0},"think_right":{"filePath":"assets/audio/voices/3/think_right.wav","string":"I think it was on the RIGHT","loaded":true,"loading":true,"data":null,"buffer":{},"side":1,"confidence":0},"left_think":{"filePath":"assets/audio/voices/3/left_think.wav","string":"It was on the LEFT, I think","loaded":true,"loading":true,"data":null,"buffer":{},"side":0,"confidence":0},"right_think":{"filePath":"assets/audio/voices/3/right_think.wav","string":"It was on the RIGHT, I think","loaded":true,"loading":true,"data":null,"buffer":{},"side":1,"confidence":0},"intro":{"filePath":"assets/audio/voices/3/intro.wav","string":"Hello, my name is KATE","loaded":true,"loading":true,"data":null,"buffer":{},"side":false}}},"name":"Kate","portrait":{},"portraitSrc":"http://localhost:8080/ExploringSocialMetacognition/assets/image/advisor3.png"},{"id":1,"adviceType":2,"voice":{"basePath":"","id":1,"name":"Annie","lines":{"think_left":{"filePath":"assets/audio/voices/1/think_left.wav","string":"I think it was on the LEFT","loaded":true,"loading":true,"data":null,"buffer":{},"side":0,"confidence":0},"think_right":{"filePath":"assets/audio/voices/1/think_right.wav","string":"I think it was on the RIGHT","loaded":true,"loading":true,"data":null,"buffer":{},"side":1,"confidence":0},"left_think":{"filePath":"assets/audio/voices/1/left_think.wav","string":"It was on the LEFT, I think","loaded":true,"loading":true,"data":null,"buffer":{},"side":0,"confidence":0},"right_think":{"filePath":"assets/audio/voices/1/right_think.wav","string":"It was on the RIGHT, I think","loaded":true,"loading":true,"data":null,"buffer":{},"side":1,"confidence":0},"intro":{"filePath":"assets/audio/voices/1/intro.wav","string":"Hello, my name is ANNIE","loaded":true,"loading":true,"data":null,"buffer":{},"side":false}}},"name":"Annie","portrait":{},"portraitSrc":"http://localhost:8080/ExploringSocialMetacognition/assets/image/advisor1.png"}],"blockCount":4,"blockStructure":{"0":0,"1":6,"2":6},"blockLength":12,"practiceBlockCount":1,"practiceBlockStructure":{"0":0,"1":12,"2":0},"practiceBlockLength":12,"preTrialInterval":200,"preStimulusInterval":500,"stimulusDuration":200,"feedbackDuration":200,"questionnaireStack":[],"miscTrials":[{"view_history":"[{\"page_index\":0,\"viewing_time\":24370},{\"page_index\":1,\"viewing_time\":1336}]","rt":25706,"trial_type":"instructions","trial_index":0,"time_elapsed":25708,"internal_node_id":"0.0-0.0"},{"view_history":"[{\"page_index\":0,\"viewing_time\":736}]","rt":736,"trial_type":"instructions","trial_index":2,"time_elapsed":30363,"internal_node_id":"0.0-2.0"},{"view_history":"[{\"page_index\":0,\"viewing_time\":1037}]","rt":1037,"trial_type":"instructions","trial_index":4,"time_elapsed":36185,"internal_node_id":"0.0-4.0"},{"view_history":"[{\"page_index\":0,\"viewing_time\":1073}]","rt":1073,"trial_type":"instructions","trial_index":8,"time_elapsed":46184,"internal_node_id":"0.0-6.0"},{"view_history":"[{\"page_index\":0,\"viewing_time\":2632}]","rt":2632,"trial_type":"instructions","trial_index":46,"time_elapsed":144325,"internal_node_id":"0.0-9.0"},{"view_history":"[{\"page_index\":0,\"viewing_time\":920}]","rt":920,"trial_type":"instructions","trial_index":47,"time_elapsed":145245,"internal_node_id":"0.0-10.0"},{"view_history":"[{\"page_index\":0,\"viewing_time\":706}]","rt":707,"trial_type":"instructions","trial_index":86,"time_elapsed":256815,"internal_node_id":"0.0-14.0"},{"view_history":"[{\"page_index\":0,\"viewing_time\":1138}]","rt":1138,"trial_type":"instructions","trial_index":123,"time_elapsed":349004,"internal_node_id":"0.0-16.0"},{"view_history":"[{\"page_index\":0,\"viewing_time\":1032}]","rt":1032,"trial_type":"instructions","trial_index":160,"time_elapsed":445197,"internal_node_id":"0.0-18.0"}],"trials":[{"type":1,"typeName":"force","block":1,"advisorId":0,"choice":[],"answer":[0,null],"confidence":[100,null],"whichSide":0,"practice":true,"feedback":true,"warnings":[],"stimulusDrawTime":[26518.500000005588],"stimulusOffTime":[null],"fixationDrawTime":[26018.500000005588],"id":1,"dotDifference":30,"grid":{"dotCountL":230,"dotCountR":170,"gridWidth":20,"gridHeight":20,"dotWidth":2,"dotHeight":2,"paddingX":6,"paddingY":6,"gridL":[[1,0,1,1,1,1,1,1,0,1,0,1,1,1,1,0,1,0,0,1],[1,1,1,0,0,1,1,0,0,1,0,0,0,1,1,1,1,1,0,1],[1,0,0,1,1,1,1,1,1,1,1,1,0,1,0,1,0,0,0,0],[1,1,1,1,1,1,1,1,1,0,1,0,0,1,1,1,0,1,1,1],[0,1,1,1,1,1,1,0,1,0,0,1,0,0,1,0,1,1,1,1],[0,0,1,1,1,0,1,0,1,1,1,1,1,0,0,0,0,1,1,1],[0,0,1,0,1,0,1,0,0,0,0,0,1,1,1,0,0,1,0,0],[0,1,1,0,0,0,1,1,1,0,1,1,1,0,0,1,0,0,1,1],[1,1,0,1,1,1,0,1,1,0,1,1,1,0,0,0,0,1,1,1],[1,0,1,1,0,0,0,0,0,0,1,1,1,0,0,1,0,0,1,1],[1,1,0,1,1,1,1,1,0,0,0,1,0,1,0,1,1,0,0,1],[0,0,1,1,1,0,0,1,1,0,0,1,0,1,1,1,1,1,1,0],[0,1,0,1,1,1,1,1,1,0,1,0,1,0,1,0,1,1,0,0],[1,0,0,1,1,0,1,1,1,0,1,0,1,1,0,1,0,1,1,1],[1,1,1,1,1,0,1,1,0,0,0,1,0,0,0,1,0,1,1,0],[1,1,1,1,0,1,1,0,1,1,1,0,1,1,0,0,0,1,1,1],[0,1,1,0,1,0,1,1,0,0,1,0,0,1,0,0,0,1,1,1],[0,1,0,1,1,1,0,1,0,1,1,1,0,0,0,0,0,1,1,1],[0,1,0,0,0,0,0,0,1,1,1,0,0,1,0,1,0,0,0,0],[1,1,0,1,0,0,0,1,1,0,0,1,1,1,0,0,1,0,0,1]],"gridR":[[1,0,1,0,0,0,1,1,1,1,0,0,1,0,1,1,0,0,1,0],[1,0,1,1,0,1,0,1,1,0,1,0,1,1,0,0,1,0,1,1],[0,0,1,1,0,0,0,0,0,0,1,1,1,0,0,1,0,0,1,0],[1,0,0,1,0,1,0,0,0,0,1,1,1,1,0,0,0,1,0,0],[1,1,1,0,0,1,0,0,1,0,0,0,0,1,0,0,0,0,1,0],[1,0,1,1,0,0,1,1,0,0,0,1,1,1,0,1,1,0,1,1],[0,1,1,1,0,0,1,0,0,0,1,0,0,0,0,1,1,0,0,0],[1,0,1,1,0,1,0,1,1,1,0,0,1,1,0,1,1,0,0,1],[0,1,1,1,1,1,1,0,0,0,0,1,1,1,1,0,0,1,0,0],[1,0,0,0,0,1,0,1,0,0,0,1,1,1,1,1,0,1,1,0],[0,0,0,0,1,0,0,0,1,0,0,0,0,1,0,0,1,0,0,0],[0,1,1,1,1,0,0,0,0,1,0,0,0,1,1,0,0,1,1,0],[1,1,1,0,1,1,1,0,0,0,1,0,0,0,1,1,0,0,0,0],[0,1,1,0,1,0,0,1,1,0,1,0,0,0,0,0,1,0,0,0],[0,1,0,0,1,0,1,1,1,1,0,0,1,0,1,1,0,0,0,1],[0,1,0,1,1,0,0,1,0,0,1,0,1,0,0,0,0,1,0,0],[0,1,1,1,0,0,1,1,0,1,1,0,0,1,0,0,0,0,1,1],[1,0,0,0,1,0,0,0,1,0,1,1,0,0,0,1,1,0,0,0],[0,0,0,0,0,0,0,0,0,0,0,0,0,0,1,0,0,0,0,1],[0,1,0,0,0,1,1,0,1,0,1,0,0,0,1,0,1,0,1,1]],"displayWidth":172,"displayHeight":172,"spacing":100,"style":{"gridBorderColor":"#ffffff","gridBorderWidth":"3","dotColor":"#ffffff","dotLineWidth":"1"}},"pluginResponse":[{"startTime":25818.499999819323,"rt":3717.000000178814,"response":[{"id":0,"name":"Left","answer":100,"prompt":"Left","lastChangedTime":28456.499999854714},{"id":1,"name":"Right","answer":"50","prompt":"Right","lastChangedTime":null}],"trial_type":"canvas-sliders-response","trial_index":1,"time_elapsed":29428,"internal_node_id":"0.0-1.0"}]},{"type":1,"typeName":"force","block":1,"advisorId":0,"choice":[],"answer":[1,null],"confidence":[100,null],"whichSide":1,"practice":true,"feedback":true,"warnings":[],"stimulusDrawTime":[31174.49999996461],"stimulusOffTime":[null],"fixationDrawTime":[30673.499999800697],"id":2,"dotDifference":30,"grid":{"dotCountL":170,"dotCountR":230,"gridWidth":20,"gridHeight":20,"dotWidth":2,"dotHeight":2,"paddingX":6,"paddingY":6,"gridL":[[0,1,1,0,1,1,1,0,1,1,0,1,1,1,0,0,0,0,1,1],[0,1,0,1,1,0,1,1,0,0,0,0,0,0,0,1,1,1,1,0],[0,0,0,1,1,1,0,0,0,1,0,0,1,1,1,0,0,0,1,1],[0,0,1,1,0,1,0,0,1,1,1,0,0,0,1,1,0,0,1,0],[1,0,1,1,0,0,0,0,1,0,0,0,0,0,0,0,0,1,1,1],[1,0,1,1,1,0,1,1,1,1,1,0,0,0,1,0,0,1,1,1],[0,0,0,0,1,0,0,1,0,1,0,1,1,0,0,1,0,0,1,0],[0,0,1,0,0,1,0,1,1,0,0,1,0,1,0,1,0,1,1,0],[1,0,0,0,1,0,1,1,0,0,1,1,0,0,1,1,0,0,0,1],[0,1,1,1,0,0,1,1,1,1,1,0,1,1,0,1,0,1,0,0],[1,1,0,0,1,0,0,1,0,1,0,1,1,0,1,0,0,0,0,1],[0,1,0,0,0,1,0,0,1,0,1,0,0,0,1,0,1,1,0,1],[0,0,0,1,0,0,0,0,0,1,1,0,0,0,0,0,0,0,0,0],[0,0,1,0,0,0,0,0,0,0,0,1,0,0,0,1,0,0,0,1],[1,1,0,1,0,1,0,1,1,0,1,1,1,0,0,1,1,1,0,0],[0,0,1,0,1,0,1,1,0,0,0,1,1,1,0,0,1,1,0,0],[0,1,0,0,1,0,0,0,1,0,0,1,1,0,0,0,0,0,0,0],[1,1,0,1,0,1,1,0,0,0,0,1,1,0,0,0,0,0,0,0],[0,0,0,1,0,0,1,0,1,1,1,1,1,0,1,0,0,0,0,0],[1,0,1,0,0,0,0,1,0,1,1,1,0,1,0,0,0,1,1,0]],"gridR":[[0,1,1,0,0,1,1,0,1,0,1,1,1,1,0,0,1,1,0,1],[1,1,1,1,0,0,1,1,0,0,1,0,0,1,0,0,1,1,1,1],[1,1,0,0,1,1,1,0,1,1,0,0,0,1,0,0,1,0,0,0],[1,1,0,1,0,1,1,0,1,1,0,0,1,1,1,0,1,0,1,0],[0,1,1,1,1,1,0,1,0,1,1,1,0,1,1,1,1,1,1,1],[1,0,1,0,1,1,1,1,1,1,1,0,1,1,1,1,1,0,1,1],[0,0,1,0,0,0,1,0,1,1,0,0,0,1,1,0,0,0,0,0],[0,0,1,1,1,1,1,0,0,1,1,1,0,1,0,1,1,1,1,0],[1,0,1,1,1,0,0,1,0,1,0,1,0,1,0,1,1,1,0,1],[0,0,1,1,1,1,0,0,1,1,1,1,0,0,0,0,0,0,0,0],[1,1,0,1,1,0,1,1,1,1,1,1,0,0,0,1,1,1,1,0],[1,1,0,1,1,1,0,1,1,1,1,0,1,0,0,1,1,1,0,1],[0,0,0,0,1,1,1,0,1,0,0,1,1,0,1,0,0,1,0,1],[0,0,1,1,0,0,0,0,0,1,1,0,1,0,0,0,0,1,1,1],[1,1,0,1,0,0,1,1,1,1,1,0,0,0,1,1,1,0,1,1],[1,1,1,1,1,0,0,1,0,1,0,1,0,0,1,0,0,1,0,1],[1,1,0,1,1,0,0,0,0,1,0,0,1,1,1,1,1,0,1,0],[1,1,1,0,1,0,0,1,1,1,1,0,1,1,0,0,1,1,1,1],[1,1,1,0,1,1,0,0,1,1,0,0,0,0,0,1,1,1,0,1],[1,1,0,0,0,0,0,1,1,0,1,1,1,0,0,1,1,0,0,0]],"displayWidth":172,"displayHeight":172,"spacing":100,"style":{"gridBorderColor":"#ffffff","gridBorderWidth":"3","dotColor":"#ffffff","dotLineWidth":"1"}},"pluginResponse":[{"startTime":30473.499999847263,"rt":4583.000000100583,"response":[{"id":0,"name":"Left","answer":50,"prompt":"Left","lastChangedTime":null},{"id":1,"name":"Right","answer":"100","prompt":"Right","lastChangedTime":34252.49999994412}],"trial_type":"canvas-sliders-response","trial_index":3,"time_elapsed":34948,"internal_node_id":"0.0-3.0"}]},{"type":1,"typeName":"force","block":1,"advisorId":1,"choice":[],"answer":[1,1],"confidence":[100,100],"whichSide":1,"practice":true,"feedback":true,"warnings":["getConfidenceCategory: too few trials available to estimate confidence"],"stimulusDrawTime":[36996.49999989197],"stimulusOffTime":[null,null],"fixationDrawTime":[36495.499999960884],"id":3,"dotDifference":30,"grid":{"dotCountL":170,"dotCountR":230,"gridWidth":20,"gridHeight":20,"dotWidth":2,"dotHeight":2,"paddingX":6,"paddingY":6,"gridL":[[1,0,0,0,1,0,1,0,1,0,1,1,1,0,1,1,1,0,1,1],[1,1,0,0,1,0,1,1,0,0,0,1,0,0,0,0,0,0,1,0],[1,0,1,0,0,1,0,1,1,0,0,1,0,0,0,0,1,1,0,0],[1,0,0,1,1,1,1,1,0,1,0,1,0,1,1,0,1,1,0,0],[1,0,0,0,0,0,0,0,1,1,0,1,0,0,1,1,0,0,0,0],[0,1,0,1,0,1,1,0,0,0,0,0,0,0,0,0,0,1,0,0],[0,0,1,0,1,0,1,0,0,0,0,1,0,0,0,0,0,1,1,0],[0,0,0,0,0,1,1,0,0,1,0,0,1,0,0,1,1,1,1,1],[1,0,0,0,0,0,1,1,0,0,1,0,1,0,0,0,1,0,0,0],[1,0,0,0,1,0,0,0,1,0,0,0,0,0,0,1,1,1,1,0],[1,1,1,0,0,0,0,0,1,0,0,1,0,0,1,0,0,1,0,1],[1,0,0,0,0,0,1,1,0,0,1,1,0,0,0,1,0,1,0,0],[1,0,1,0,1,1,0,0,0,1,0,1,0,1,1,0,1,0,1,1],[1,0,0,1,0,1,1,0,0,1,0,0,0,1,0,0,0,0,0,1],[0,1,0,1,0,1,0,1,0,0,0,0,0,0,0,0,0,1,1,1],[1,1,1,1,1,0,0,1,0,0,0,0,0,1,0,1,1,0,1,1],[0,0,1,0,1,1,1,0,0,1,1,0,0,1,1,0,1,1,1,1],[1,0,1,1,1,0,0,0,0,0,0,0,1,0,1,1,1,0,1,1],[0,1,1,1,0,1,1,0,1,0,0,1,1,0,0,1,0,1,1,1],[1,0,0,0,0,1,1,1,1,0,1,0,0,0,0,0,0,1,0,0]],"gridR":[[1,1,0,1,0,1,1,0,0,1,1,0,1,0,1,1,0,0,1,1],[0,1,0,1,0,0,1,1,1,1,1,1,0,1,0,1,1,0,0,1],[1,0,1,0,0,0,0,0,1,0,0,1,0,1,0,0,1,1,0,0],[1,1,0,1,0,0,1,1,0,1,0,1,1,1,1,1,1,0,1,1],[1,1,0,1,0,0,0,1,0,1,0,1,0,1,1,0,1,0,1,0],[1,1,0,1,1,1,1,0,0,1,1,1,1,1,1,1,1,1,0,0],[1,0,0,1,0,1,1,1,1,1,0,1,1,1,1,0,0,0,1,0],[0,0,0,1,1,1,0,0,1,0,0,1,0,1,1,1,0,0,0,1],[1,0,1,1,0,1,0,1,1,1,0,1,1,1,1,0,1,0,1,0],[1,1,0,0,0,0,0,1,1,0,0,0,0,0,1,1,0,1,1,1],[0,1,1,0,1,1,0,1,1,0,1,1,0,1,1,1,1,0,1,0],[0,1,0,0,1,1,0,1,0,1,0,1,1,0,1,0,1,0,1,0],[1,1,1,0,1,0,1,1,1,0,1,0,1,1,1,0,1,1,1,0],[1,0,0,1,1,1,0,1,1,1,0,1,0,1,1,1,0,1,1,1],[1,0,1,1,1,0,0,0,0,1,0,1,0,1,1,0,1,0,0,0],[0,1,0,0,1,0,1,1,1,1,1,1,1,1,1,0,1,1,1,1],[1,0,0,0,0,1,0,0,0,0,1,0,0,1,0,1,1,0,1,1],[0,1,1,0,0,1,1,0,1,1,1,1,1,0,0,1,0,0,1,0],[1,1,1,0,1,1,0,1,1,1,1,1,0,1,0,1,0,0,1,0],[1,0,0,1,0,0,1,1,1,0,1,0,0,1,1,0,0,0,1,1]],"displayWidth":172,"displayHeight":172,"spacing":100,"style":{"gridBorderColor":"#ffffff","gridBorderWidth":"3","dotColor":"#ffffff","dotLineWidth":"1"}},"pluginResponse":[{"startTime":36294.49999984354,"rt":4540.000000037253,"response":[{"id":0,"name":"Left","answer":50,"prompt":"Left","lastChangedTime":null},{"id":1,"name":"Right","answer":"100","prompt":"Right","lastChangedTime":39751.50000001304}],"trial_type":"canvas-sliders-response","trial_index":5,"time_elapsed":40726,"internal_node_id":"0.0-5.0-0.0"},{"choiceTime":0.9999999310821295,"choice":1,"totalTime":2004.9999998882413,"image":"http://localhost:8080/ExploringSocialMetacognition/assets/image/advisor1.png","adviceTime":2003.9999999571592,"trial_type":"jspsych-jas-present-advice-choice","trial_index":6,"time_elapsed":42932,"internal_node_id":"0.0-5.0-1.0"},{"startTime":43042.49999998137,"rt":1976.0000000242144,"response":[{"id":0,"name":"Left","answer":50,"prompt":"Left","lastChangedTime":null},{"id":1,"name":"Right","answer":"100","prompt":"Right","lastChangedTime":44083.49999994971}],"trial_type":"canvas-sliders-response","trial_index":7,"time_elapsed":44911,"internal_node_id":"0.0-5.0-2.0"}],"advisorAgrees":false},{"type":1,"typeName":"force","block":1,"advisorId":1,"choice":[],"answer":[0,0],"confidence":[100,100],"whichSide":0,"practice":true,"feedback":true,"warnings":["getConfidenceCategory: too few trials available to estimate confidence"],"stimulusDrawTime":[46994.49999979697],"stimulusOffTime":[901.0000000707805,null],"fixationDrawTime":[46494.49999979697],"id":4,"dotDifference":27,"grid":{"dotCountL":227,"dotCountR":173,"gridWidth":20,"gridHeight":20,"dotWidth":2,"dotHeight":2,"paddingX":6,"paddingY":6,"gridL":[[0,0,1,1,1,1,0,0,1,0,0,1,1,1,1,0,0,0,1,0],[1,0,0,1,0,0,1,1,1,1,0,1,0,0,0,1,1,0,0,0],[0,1,1,1,0,0,1,1,0,0,1,1,0,1,0,0,1,1,0,0],[1,1,1,0,0,1,0,1,1,0,1,1,1,0,1,0,0,1,0,1],[1,1,0,0,0,0,0,0,0,1,0,0,1,1,1,1,1,0,1,1],[1,0,1,1,0,1,1,0,1,0,1,1,1,1,1,1,1,1,0,1],[1,1,1,1,0,0,0,0,1,1,1,0,1,1,1,1,1,0,0,0],[1,1,0,0,0,0,1,0,0,0,0,1,1,0,1,0,1,1,0,1],[1,0,1,1,1,0,0,1,1,0,1,0,0,1,1,0,1,0,0,1],[1,0,1,0,0,0,1,1,1,1,0,1,1,1,1,0,1,1,1,0],[0,1,1,0,0,0,0,0,1,0,1,1,1,1,1,1,0,0,1,1],[0,1,1,1,0,0,1,1,0,1,0,1,1,1,1,1,1,0,0,1],[1,0,1,0,0,0,1,0,1,1,1,0,1,1,1,1,1,0,1,0],[1,0,1,1,0,1,0,0,1,1,1,1,0,1,1,1,0,0,1,1],[1,1,1,1,1,1,1,0,0,0,0,0,1,1,0,1,1,1,1,0],[0,0,1,0,0,1,0,0,0,0,1,1,0,0,1,1,1,1,1,0],[0,0,1,1,1,0,1,1,0,0,1,0,1,1,1,0,1,0,1,1],[1,0,1,1,0,1,1,0,1,0,1,1,1,1,0,0,0,1,1,0],[0,0,0,1,1,0,0,1,0,1,1,0,0,0,0,1,0,1,1,0],[1,1,1,1,0,0,1,1,1,1,0,0,0,1,1,1,1,0,1,0]],"gridR":[[1,1,1,1,0,1,0,1,1,0,0,0,0,0,1,0,0,0,0,0],[1,0,1,1,0,1,1,0,0,1,0,1,0,1,1,1,0,0,1,0],[0,0,1,0,0,0,0,1,0,0,0,0,1,0,0,0,0,0,1,0],[0,0,0,0,1,0,1,1,1,1,0,1,1,0,1,1,0,0,0,0],[1,1,0,0,1,1,1,0,1,0,1,1,0,0,1,0,0,0,0,0],[0,1,1,1,1,0,0,0,0,0,1,1,0,0,0,1,0,0,1,1],[1,0,1,1,0,1,0,0,0,1,1,0,1,0,0,0,1,0,0,1],[0,1,1,0,1,0,0,0,1,0,0,0,0,0,1,1,1,0,0,1],[0,1,0,0,1,0,0,1,0,1,0,0,1,1,0,1,1,0,0,0],[1,1,0,0,1,0,0,1,0,1,1,1,1,1,0,0,0,0,1,1],[0,0,0,0,0,0,1,1,0,0,0,1,0,0,1,1,1,1,0,0],[0,1,0,1,0,0,0,0,0,1,1,1,0,0,0,0,1,1,1,0],[0,0,0,0,0,1,0,0,1,1,1,0,0,0,1,0,0,0,0,0],[1,0,1,0,1,1,0,0,0,0,0,1,1,1,0,1,1,0,1,1],[1,0,1,0,0,0,1,1,0,1,1,1,1,0,0,0,1,0,1,0],[0,1,0,1,1,0,1,0,1,1,1,1,1,0,0,0,1,0,0,0],[0,0,0,0,0,0,0,0,0,1,0,1,1,1,1,0,0,1,1,1],[1,0,0,1,1,1,1,0,0,0,1,1,1,1,0,1,1,1,1,0],[1,0,1,1,1,1,0,0,0,0,1,0,1,0,0,0,0,0,1,0],[1,1,0,0,0,0,0,1,1,0,0,0,1,0,0,0,1,0,1,0]],"displayWidth":172,"displayHeight":172,"spacing":100,"style":{"gridBorderColor":"#ffffff","gridBorderWidth":"3","dotColor":"#ffffff","dotLineWidth":"1"}},"pluginResponse":[{"startTime":46294.49999984354,"rt":2790.000000037253,"response":[{"id":0,"name":"Left","answer":100,"prompt":"Left","lastChangedTime":48601.49999987334},{"id":1,"name":"Right","answer":"50","prompt":"Right","lastChangedTime":null}],"stimulusOffTime":901.0000000707805,"trial_type":"canvas-sliders-response","trial_index":9,"time_elapsed":48976,"internal_node_id":"0.0-7.0-0.0"},{"choiceTime":0,"choice":1,"totalTime":2002.000000094995,"image":"http://localhost:8080/ExploringSocialMetacognition/assets/image/advisor1.png","adviceTime":2002.000000094995,"trial_type":"jspsych-jas-present-advice-choice","trial_index":10,"time_elapsed":50979,"internal_node_id":"0.0-7.0-1.0"},{"startTime":51088.49999983795,"rt":2131.999999983236,"response":[{"id":0,"name":"Left","answer":100,"prompt":"Left","lastChangedTime":52591.49999986403},{"id":1,"name":"Right","answer":"50","prompt":"Right","lastChangedTime":null}],"trial_type":"canvas-sliders-response","trial_index":11,"time_elapsed":53113,"internal_node_id":"0.0-7.0-2.0"}],"advisorAgrees":true},{"type":1,"typeName":"force","block":1,"advisorId":1,"choice":[],"answer":[1,1],"confidence":[100,100],"whichSide":1,"practice":true,"feedback":true,"warnings":["getConfidenceCategory: too few trials available to estimate confidence"],"stimulusDrawTime":[54122.49999982305],"stimulusOffTime":[901.0000000707805,null],"fixationDrawTime":[53623.49999998696],"id":5,"dotDifference":24,"grid":{"dotCountL":176,"dotCountR":224,"gridWidth":20,"gridHeight":20,"dotWidth":2,"dotHeight":2,"paddingX":6,"paddingY":6,"gridL":[[1,0,1,1,0,0,0,0,1,1,1,1,1,1,0,0,1,0,0,0],[1,0,1,1,0,1,0,1,1,0,1,0,1,0,1,0,0,0,0,1],[1,0,1,1,1,0,1,0,1,1,1,0,0,0,0,1,0,1,1,1],[0,1,0,0,0,1,1,1,0,0,0,1,1,0,0,0,1,1,1,0],[0,1,1,0,1,1,0,0,0,1,0,0,0,0,0,0,1,1,0,0],[1,1,0,1,0,0,0,1,1,0,1,1,0,1,1,1,0,0,1,1],[0,1,0,1,1,0,0,1,0,1,0,1,0,1,0,0,0,0,1,0],[1,1,0,1,0,0,1,0,1,0,0,1,0,0,0,1,0,0,1,0],[0,1,0,1,1,0,1,1,1,0,1,1,1,0,1,0,0,0,0,0],[1,1,0,0,0,1,0,0,0,0,0,0,1,0,0,0,1,1,0,0],[0,0,1,0,0,0,0,0,1,0,1,0,1,1,1,0,0,0,0,1],[0,1,0,0,1,0,1,0,0,0,1,1,0,0,0,0,0,1,0,1],[0,1,0,0,1,0,1,0,1,0,0,1,0,0,1,0,1,0,1,0],[1,0,1,0,0,1,1,0,1,0,0,1,1,0,1,1,1,1,1,0],[1,1,1,0,0,0,0,1,1,1,1,0,0,0,0,1,0,0,0,0],[1,0,1,1,0,1,1,0,1,0,0,0,0,1,0,1,0,1,0,0],[0,1,1,0,0,0,0,0,1,1,0,1,0,1,1,1,0,0,0,0],[0,0,0,0,0,0,0,0,1,1,0,1,0,1,1,0,0,1,1,1],[1,0,1,0,1,1,1,0,0,0,0,0,0,1,0,0,0,1,1,1],[0,0,0,1,0,0,0,0,1,1,1,0,0,1,1,0,1,0,0,1]],"gridR":[[1,1,0,0,1,0,1,0,1,1,0,1,1,0,0,0,0,1,1,0],[0,1,1,0,0,1,1,1,1,1,1,1,0,0,1,0,1,0,1,1],[0,1,1,1,0,0,0,1,0,1,1,0,1,1,1,1,1,1,1,0],[1,0,1,1,1,0,0,0,0,1,0,0,1,0,1,0,0,1,1,0],[0,0,0,0,0,0,1,1,0,0,1,1,0,1,1,1,1,0,1,1],[0,1,0,0,0,1,1,1,1,1,1,0,0,0,1,1,1,1,0,0],[1,0,0,1,1,1,1,0,1,0,0,0,1,1,1,0,1,0,1,0],[1,1,1,1,0,1,1,0,0,0,1,1,0,1,1,1,0,1,0,1],[1,1,0,1,1,1,0,1,0,0,0,0,1,0,0,0,0,1,1,1],[1,1,1,1,1,1,1,1,1,0,1,0,1,1,0,1,1,1,0,1],[0,0,0,1,1,0,0,0,1,1,1,0,1,0,0,1,1,0,0,1],[0,0,1,0,1,0,1,1,1,0,0,1,0,1,1,0,1,1,0,0],[0,0,1,0,0,1,0,1,1,0,1,0,1,1,1,1,0,1,1,0],[1,1,1,0,1,1,1,1,0,0,0,0,1,0,1,1,1,1,0,0],[0,1,0,0,1,1,0,1,1,1,1,0,1,1,1,1,1,0,1,0],[0,0,1,1,0,0,1,0,0,1,1,1,1,0,0,0,1,1,1,1],[1,1,0,1,0,1,1,1,1,0,0,1,1,0,0,1,0,1,0,1],[1,0,0,0,1,1,0,0,1,1,0,0,1,0,0,0,0,0,1,0],[1,0,0,0,0,1,1,0,0,1,1,1,0,0,1,0,1,1,1,0],[0,0,1,0,1,1,1,1,1,0,0,0,1,1,1,1,0,1,1,1]],"displayWidth":172,"displayHeight":172,"spacing":100,"style":{"gridBorderColor":"#ffffff","gridBorderWidth":"3","dotColor":"#ffffff","dotLineWidth":"1"}},"pluginResponse":[{"startTime":53421.49999993853,"rt":2794.999999925494,"response":[{"id":0,"name":"Left","answer":50,"prompt":"Left","lastChangedTime":null},{"id":1,"name":"Right","answer":"100","prompt":"Right","lastChangedTime":55685.499999905005}],"stimulusOffTime":901.0000000707805,"trial_type":"canvas-sliders-response","trial_index":12,"time_elapsed":56107,"internal_node_id":"0.0-7.0-0.1"},{"choiceTime":0,"choice":1,"totalTime":2002.000000094995,"image":"http://localhost:8080/ExploringSocialMetacognition/assets/image/advisor1.png","adviceTime":2002.000000094995,"trial_type":"jspsych-jas-present-advice-choice","trial_index":13,"time_elapsed":58111,"internal_node_id":"0.0-7.0-1.1"},{"startTime":58220.499999821186,"rt":1880.000000121072,"response":[{"id":0,"name":"Left","answer":50,"prompt":"Left","lastChangedTime":null},{"id":1,"name":"Right","answer":"100","prompt":"Right","lastChangedTime":59569.499999983236}],"trial_type":"canvas-sliders-response","trial_index":14,"time_elapsed":59991,"internal_node_id":"0.0-7.0-2.1"}],"advisorAgrees":false},{"block":1,"advisorId":1,"choice":[],"answer":[0,0],"confidence":[100,100],"whichSide":0,"practice":true,"feedback":true,"warnings":["getConfidenceCategory: too few trials available to estimate confidence"],"stimulusDrawTime":[61001.50000001304],"stimulusOffTime":[900.0000001396984,null],"fixationDrawTime":[60501.50000001304],"id":6,"dotDifference":21,"grid":{"dotCountL":221,"dotCountR":179,"gridWidth":20,"gridHeight":20,"dotWidth":2,"dotHeight":2,"paddingX":6,"paddingY":6,"gridL":[[0,0,1,1,1,0,1,1,0,1,1,0,0,1,1,1,1,1,0,0],[1,1,1,1,0,1,0,0,1,1,0,1,1,1,0,1,1,1,1,1],[1,1,1,0,0,1,1,1,0,0,0,0,1,1,1,1,1,0,0,1],[0,0,1,1,0,0,1,1,1,0,1,1,1,1,0,1,0,1,1,0],[0,1,0,1,1,0,1,0,1,1,0,0,1,0,0,1,1,1,1,1],[1,0,1,1,1,1,1,1,0,1,1,1,0,1,0,1,1,0,0,1],[1,1,1,0,1,0,0,1,1,1,0,0,1,0,0,1,1,0,1,1],[0,1,1,0,1,1,1,0,1,1,1,0,1,0,1,0,1,1,0,1],[0,1,0,1,1,0,1,0,0,1,0,1,1,0,1,1,1,0,1,0],[0,0,1,0,1,1,1,1,1,0,1,0,0,1,1,0,0,0,1,0],[0,0,0,1,1,1,0,0,0,0,0,1,0,1,1,1,1,1,1,0],[0,0,0,0,0,0,0,1,1,1,1,0,1,0,1,0,0,0,1,0],[1,0,1,0,0,0,0,0,1,0,1,0,1,1,0,1,0,0,0,1],[0,0,0,0,0,1,0,0,1,0,1,0,1,0,0,1,0,0,1,1],[0,0,1,1,0,0,0,1,0,0,0,1,0,1,1,0,1,1,0,0],[0,0,0,0,1,1,1,1,1,1,0,1,1,1,1,0,0,1,0,1],[1,0,1,0,1,1,0,1,0,1,0,1,1,1,0,1,1,1,0,0],[1,0,1,1,0,1,1,1,0,1,0,0,1,0,1,1,1,0,0,1],[0,1,0,1,1,0,0,1,0,1,0,1,0,1,1,1,0,1,1,0],[1,1,0,1,1,1,0,0,1,0,0,1,1,1,0,0,0,1,0,1]],"gridR":[[0,0,0,1,0,0,1,1,1,1,1,1,1,0,0,1,1,0,0,1],[1,0,1,1,1,0,1,0,0,1,0,0,1,1,1,1,1,1,1,1],[1,0,0,1,0,0,1,0,1,1,0,1,0,0,0,1,1,0,0,1],[1,1,0,1,1,1,0,1,1,0,1,0,0,1,0,0,0,0,1,0],[1,0,1,1,0,0,0,1,0,1,0,1,0,0,0,1,1,1,1,0],[0,0,1,0,0,0,0,0,1,1,0,0,0,0,0,0,0,0,1,0],[0,1,0,0,1,0,1,0,0,1,1,0,0,1,0,0,1,0,0,1],[1,0,0,0,0,1,1,1,0,1,1,1,1,0,0,0,0,0,1,0],[1,1,1,1,1,0,0,0,0,0,0,1,0,0,1,1,0,1,0,1],[0,1,1,1,0,1,1,0,1,0,0,0,0,0,1,1,1,0,1,1],[0,0,0,0,1,0,1,0,0,0,0,1,0,1,1,0,1,0,0,1],[0,0,1,0,1,0,1,1,0,1,0,0,1,0,1,1,0,1,1,0],[0,0,0,1,0,1,1,1,0,1,0,1,1,1,1,0,0,0,1,0],[1,0,0,0,1,1,1,1,0,1,1,0,0,0,1,1,0,0,0,1],[1,0,0,0,1,1,0,1,1,0,0,0,0,1,1,0,1,0,1,0],[0,1,0,1,1,1,1,0,0,1,0,0,1,0,0,0,0,0,0,0],[1,1,1,1,1,0,1,0,1,1,0,1,0,1,0,0,0,0,0,0],[0,0,1,0,0,0,0,0,0,0,1,1,0,1,1,1,0,1,0,0],[1,0,1,0,1,0,1,0,1,0,1,0,0,1,1,0,0,0,0,0],[1,0,0,0,1,0,1,1,0,0,0,0,0,0,0,0,0,0,0,1]],"displayWidth":172,"displayHeight":172,"spacing":100,"style":{"gridBorderColor":"#ffffff","gridBorderWidth":"3","dotColor":"#ffffff","dotLineWidth":"1"}},"pluginResponse":[{"startTime":60301.499999826774,"rt":2456.000000005588,"response":[{"id":0,"name":"Left","answer":100,"prompt":"Left","lastChangedTime":62082.499999785796},{"id":1,"name":"Right","answer":"50","prompt":"Right","lastChangedTime":null}],"stimulusOffTime":900.0000001396984,"trial_type":"canvas-sliders-response","trial_index":15,"time_elapsed":62648,"internal_node_id":"0.0-7.0-0.2"},{"choiceTime":0,"choice":1,"totalTime":2002.000000094995,"image":"http://localhost:8080/ExploringSocialMetacognition/assets/image/advisor1.png","adviceTime":2002.000000094995,"trial_type":"jspsych-jas-present-advice-choice","trial_index":16,"time_elapsed":64650,"internal_node_id":"0.0-7.0-1.2"},{"startTime":64760.49999985844,"rt":1765.0000001303852,"response":[{"id":0,"name":"Left","answer":100,"prompt":"Left","lastChangedTime":66059.49999997392},{"id":1,"name":"Right","answer":"50","prompt":"Right","lastChangedTime":null}],"trial_type":"canvas-sliders-response","trial_index":17,"time_elapsed":66416,"internal_node_id":"0.0-7.0-2.2"}],"advisorAgrees":true},{"block":1,"advisorId":1,"choice":[],"answer":[0,0],"confidence":[100,100],"whichSide":0,"practice":true,"feedback":true,"warnings":["getConfidenceCategory: too few trials available to estimate confidence"],"stimulusDrawTime":[67426.49999982677],"stimulusOffTime":[900.0000001396984,null],"fixationDrawTime":[66927.49999999069],"id":7,"dotDifference":18,"grid":{"dotCountL":218,"dotCountR":182,"gridWidth":20,"gridHeight":20,"dotWidth":2,"dotHeight":2,"paddingX":6,"paddingY":6,"gridL":[[0,0,1,0,0,0,0,0,0,1,1,1,0,1,1,0,0,1,1,0],[0,1,0,0,0,0,0,0,0,1,0,0,1,0,0,1,1,0,0,0],[0,1,1,0,0,1,1,0,1,0,1,0,1,1,0,1,0,0,1,1],[1,1,1,0,1,1,0,1,1,0,1,1,1,1,1,1,1,1,0,1],[0,1,0,1,0,1,1,0,0,1,0,0,1,1,1,1,0,1,0,1],[0,0,0,1,1,0,1,1,0,1,0,1,1,1,0,1,1,0,0,1],[0,0,0,0,1,0,1,0,0,1,1,1,1,1,0,0,0,0,0,1],[1,0,1,0,1,0,1,1,0,0,1,0,0,1,0,1,0,1,1,0],[1,1,1,1,1,0,0,1,0,1,1,0,0,0,0,0,0,0,1,0],[0,1,0,1,0,0,0,1,0,1,1,1,1,1,0,0,0,0,1,0],[1,0,0,1,0,0,1,0,0,1,0,1,1,1,1,0,0,1,1,0],[1,1,1,0,0,0,0,1,1,1,0,0,0,0,0,0,1,1,1,1],[1,1,0,0,1,1,1,0,0,1,1,1,0,0,1,0,0,1,0,0],[1,1,1,0,1,1,0,1,0,1,1,1,0,1,0,1,0,1,1,0],[1,1,1,0,1,0,1,1,1,1,0,1,0,1,0,1,0,0,1,1],[0,0,0,0,1,1,1,1,0,0,0,1,0,1,1,0,1,1,0,1],[1,0,1,1,1,1,0,0,0,0,0,1,0,1,0,1,1,0,1,1],[1,1,1,1,0,1,1,1,1,1,0,1,1,1,1,1,0,1,1,1],[0,0,0,1,0,1,1,1,1,1,1,1,0,0,0,1,0,1,1,0],[1,1,1,0,1,1,1,1,0,1,1,1,1,1,0,0,1,1,0,1]],"gridR":[[0,0,0,0,1,0,1,1,1,1,1,0,1,0,1,1,0,1,0,1],[1,0,0,1,0,0,1,1,1,0,1,1,0,0,0,0,0,1,0,1],[0,1,1,0,1,1,0,0,0,0,0,1,0,1,1,0,0,1,0,0],[0,0,0,1,0,0,0,1,1,0,1,0,0,0,1,1,0,1,1,0],[1,0,1,0,1,1,0,0,0,0,0,1,1,0,0,1,0,1,0,0],[0,1,1,0,0,1,0,1,0,0,0,0,1,0,0,1,0,1,1,0],[1,0,0,0,0,1,1,1,1,1,0,1,1,1,0,1,0,0,1,0],[1,0,0,1,0,1,1,0,0,1,1,0,1,1,0,1,0,1,0,0],[1,0,1,1,0,0,0,1,1,1,0,1,1,0,1,0,1,0,0,0],[0,0,1,0,0,0,0,0,1,0,0,0,0,0,0,0,1,1,0,1],[0,0,1,0,0,1,0,1,0,1,1,0,0,0,1,1,1,1,0,0],[1,1,0,0,1,0,0,1,0,1,1,0,0,1,0,0,0,0,1,1],[0,0,0,1,1,1,1,0,1,0,1,1,0,0,1,1,0,1,0,0],[0,1,1,1,1,0,0,0,0,0,1,1,0,1,1,1,1,1,0,0],[0,0,1,1,0,1,1,1,0,0,1,0,0,1,0,0,0,1,0,0],[0,0,0,1,0,0,1,1,1,1,0,1,0,0,1,0,0,0,1,0],[0,0,1,1,1,0,0,0,1,1,0,0,0,1,1,1,0,0,0,0],[1,1,1,0,0,0,0,0,0,0,1,1,1,0,0,1,0,0,1,0],[0,0,0,1,0,1,0,1,0,1,0,1,1,0,1,1,1,1,0,1],[1,0,0,0,1,1,0,0,1,0,0,1,1,1,1,1,1,0,1,1]],"displayWidth":172,"displayHeight":172,"spacing":100,"style":{"gridBorderColor":"#ffffff","gridBorderWidth":"3","dotColor":"#ffffff","dotLineWidth":"1"}},"pluginResponse":[{"startTime":66726.49999987334,"rt":2684.000000124797,"response":[{"id":0,"name":"Left","answer":100,"prompt":"Left","lastChangedTime":68792.49999998137},{"id":1,"name":"Right","answer":"50","prompt":"Right","lastChangedTime":null}],"stimulusOffTime":900.0000001396984,"trial_type":"canvas-sliders-response","trial_index":18,"time_elapsed":69302,"internal_node_id":"0.0-7.0-0.3"},{"choiceTime":0,"choice":1,"totalTime":2002.000000094995,"image":"http://localhost:8080/ExploringSocialMetacognition/assets/image/advisor1.png","adviceTime":2002.000000094995,"trial_type":"jspsych-jas-present-advice-choice","trial_index":19,"time_elapsed":71305,"internal_node_id":"0.0-7.0-1.3"},{"startTime":71415.49999988638,"rt":1571.9999999273568,"response":[{"id":0,"name":"Left","answer":100,"prompt":"Left","lastChangedTime":72359.49999978766},{"id":1,"name":"Right","answer":"50","prompt":"Right","lastChangedTime":null}],"trial_type":"canvas-sliders-response","trial_index":20,"time_elapsed":72879,"internal_node_id":"0.0-7.0-2.3"}],"advisorAgrees":true},{"block":1,"advisorId":1,"choice":[],"answer":[1,1],"confidence":[99,100],"whichSide":0,"practice":true,"feedback":true,"warnings":["getConfidenceCategory: too few trials available to estimate confidence"],"stimulusDrawTime":[73889.4999998156],"stimulusOffTime":[900.0000001396984,null],"fixationDrawTime":[73390.49999997951],"id":8,"dotDifference":15,"grid":{"dotCountL":215,"dotCountR":185,"gridWidth":20,"gridHeight":20,"dotWidth":2,"dotHeight":2,"paddingX":6,"paddingY":6,"gridL":[[0,0,1,1,0,0,0,0,0,0,1,0,1,0,0,0,0,1,0,1],[1,1,0,0,0,0,1,1,1,1,0,1,1,1,1,1,1,0,1,0],[0,0,1,0,1,0,0,1,0,1,0,0,0,0,0,0,0,1,0,0],[0,1,1,1,1,1,1,1,0,1,1,1,0,0,0,1,0,0,0,0],[0,1,1,1,1,1,0,1,0,1,0,1,0,1,1,0,1,0,1,0],[1,1,0,1,0,0,1,0,1,1,0,0,0,0,1,0,0,0,0,1],[0,1,1,1,1,1,0,1,1,1,1,0,1,0,0,0,1,0,0,0],[0,0,1,0,1,1,1,0,1,1,1,1,1,1,0,1,1,1,1,1],[1,1,1,0,0,0,0,0,1,0,1,1,1,1,0,1,1,1,0,0],[0,1,1,0,1,0,0,1,0,1,0,1,0,1,1,0,1,1,0,0],[1,1,1,1,1,1,1,0,1,1,0,1,1,1,1,0,0,1,0,0],[1,0,1,0,1,1,1,0,1,1,1,1,1,0,0,0,0,1,1,1],[1,1,1,1,0,0,1,0,0,1,1,1,1,0,1,1,0,1,1,1],[0,1,1,1,1,1,1,0,1,0,1,1,1,1,1,0,1,0,1,1],[0,0,0,1,1,0,0,1,1,0,0,0,0,1,1,0,1,0,1,1],[0,0,0,0,0,0,0,0,0,1,0,1,1,0,1,0,1,1,0,1],[0,1,1,0,0,0,0,0,0,0,1,0,1,0,0,1,1,0,1,0],[0,1,1,1,1,1,1,1,0,0,0,1,0,0,1,1,1,0,1,1],[1,1,1,0,1,0,1,1,0,0,1,0,0,0,1,0,1,1,1,0],[1,1,0,0,1,0,0,0,0,0,1,1,0,1,1,1,0,1,1,0]],"gridR":[[0,1,1,0,0,0,1,0,1,0,0,0,1,1,1,0,0,0,0,1],[0,0,1,0,1,0,0,0,0,1,1,1,1,1,1,0,0,1,1,1],[0,0,0,0,0,1,0,1,0,0,1,1,1,1,1,1,0,0,1,1],[0,1,0,0,1,1,0,0,0,0,1,0,1,0,1,0,1,1,0,1],[1,0,0,0,0,0,0,1,1,0,0,1,1,1,0,1,1,0,1,0],[0,1,1,0,0,1,1,0,1,0,1,1,0,0,1,0,0,1,1,1],[1,0,0,0,1,1,1,1,1,1,0,0,0,1,0,0,1,0,0,0],[1,0,1,1,0,1,1,0,1,1,1,1,0,1,1,1,0,1,0,1],[0,1,1,1,0,1,0,1,0,1,1,1,0,0,1,0,0,1,1,0],[0,1,0,0,1,1,1,0,1,0,1,0,0,0,0,0,1,0,1,1],[0,0,0,1,0,0,0,1,0,1,0,0,0,0,0,0,0,0,0,0],[0,1,0,1,0,0,1,1,0,0,0,1,1,1,0,0,0,1,0,0],[0,0,1,1,0,1,1,0,0,0,1,0,0,0,1,0,1,0,0,1],[1,1,1,0,0,0,1,0,1,0,0,0,1,0,0,0,1,1,0,1],[0,1,1,1,0,1,1,1,0,1,0,1,1,0,1,1,1,1,1,0],[0,1,1,1,0,1,0,1,0,0,1,1,1,1,0,0,1,0,0,0],[0,0,0,0,0,1,1,0,0,0,0,0,0,0,0,1,0,1,0,0],[1,1,0,0,1,1,0,0,0,1,0,0,0,1,0,1,1,0,0,1],[1,1,1,1,0,1,1,1,0,1,0,0,0,0,0,1,1,1,0,0],[0,0,0,1,1,0,1,0,1,1,0,0,0,0,1,0,0,1,1,0]],"displayWidth":172,"displayHeight":172,"spacing":100,"style":{"gridBorderColor":"#ffffff","gridBorderWidth":"3","dotColor":"#ffffff","dotLineWidth":"1"}},"pluginResponse":[{"startTime":73189.49999986216,"rt":2560.9999999869615,"response":[{"id":0,"name":"Left","answer":50,"prompt":"Left","lastChangedTime":null},{"id":1,"name":"Right","answer":"99","prompt":"Right","lastChangedTime":75283.49999990314}],"stimulusOffTime":900.0000001396984,"trial_type":"canvas-sliders-response","trial_index":21,"time_elapsed":75642,"internal_node_id":"0.0-7.0-0.4"},{"choiceTime":0,"choice":1,"totalTime":2001.9999998621643,"image":"http://localhost:8080/ExploringSocialMetacognition/assets/image/advisor1.png","adviceTime":2001.9999998621643,"trial_type":"jspsych-jas-present-advice-choice","trial_index":22,"time_elapsed":77644,"internal_node_id":"0.0-7.0-1.4"},{"startTime":77753.4999998752,"rt":1756.9999999832362,"response":[{"id":0,"name":"Left","answer":50,"prompt":"Left","lastChangedTime":null},{"id":1,"name":"Right","answer":"100","prompt":"Right","lastChangedTime":78752.49999994412}],"trial_type":"canvas-sliders-response","trial_index":23,"time_elapsed":79402,"internal_node_id":"0.0-7.0-2.4"}],"advisorAgrees":false},{"block":1,"advisorId":1,"choice":[],"answer":[0,0],"confidence":[100,100],"whichSide":0,"practice":true,"feedback":true,"warnings":["getConfidenceCategory: too few trials available to estimate confidence"],"stimulusDrawTime":[80412.4999998603],"stimulusOffTime":[899.9999999068677,null],"fixationDrawTime":[79913.49999979138],"id":9,"dotDifference":18,"grid":{"dotCountL":218,"dotCountR":182,"gridWidth":20,"gridHeight":20,"dotWidth":2,"dotHeight":2,"paddingX":6,"paddingY":6,"gridL":[[1,0,0,0,1,0,1,1,1,1,1,1,0,1,0,0,1,1,1,0],[0,1,0,1,0,1,0,1,0,1,1,0,0,0,1,0,0,0,0,0],[0,1,1,1,0,1,0,1,1,0,0,1,1,0,0,0,1,1,1,0],[1,1,0,1,0,1,1,0,1,0,1,0,1,0,1,1,1,1,0,0],[1,1,0,1,1,1,0,1,1,0,0,1,1,0,1,1,1,0,0,1],[1,1,0,1,1,0,0,1,0,0,1,1,0,1,1,1,0,0,1,0],[0,1,0,0,0,1,1,1,1,1,0,1,1,1,1,1,0,1,1,0],[0,0,1,1,1,1,1,0,1,0,0,1,1,0,1,1,1,1,1,1],[1,0,1,1,0,0,0,1,1,1,1,1,0,0,1,1,0,0,0,0],[1,1,1,0,0,0,1,0,1,1,1,1,1,0,1,1,1,0,0,0],[0,0,0,1,1,0,1,1,0,1,0,0,0,1,0,1,0,0,1,1],[1,1,0,1,1,0,1,0,1,0,1,1,0,0,0,1,0,1,0,0],[0,0,1,1,0,1,0,1,0,1,0,0,0,0,0,1,0,1,0,1],[1,0,0,1,1,0,1,1,0,1,0,1,0,1,1,0,1,0,1,1],[1,0,0,1,0,1,1,1,0,0,1,1,0,0,1,0,0,1,1,0],[1,1,1,0,0,1,0,1,0,1,0,1,0,1,0,1,0,0,1,0],[0,0,1,0,1,0,1,1,1,0,0,0,0,1,1,0,1,1,0,1],[1,0,0,0,1,1,0,1,1,1,1,1,0,1,1,0,1,0,1,1],[1,0,0,1,0,1,0,0,1,1,0,1,1,0,1,0,0,0,1,0],[1,0,0,1,0,1,0,1,1,1,1,1,0,0,0,0,1,1,1,1]],"gridR":[[0,1,1,1,1,0,1,1,1,0,1,1,1,0,1,0,1,1,1,0],[1,0,0,0,0,1,0,0,1,1,1,0,1,1,1,1,0,0,0,0],[0,0,1,1,1,1,1,0,0,1,0,1,1,0,0,0,1,1,1,0],[0,0,1,1,0,1,1,1,0,1,1,1,0,0,0,0,1,0,1,1],[0,1,0,0,1,1,1,1,1,1,0,0,0,0,0,1,1,0,1,0],[0,1,0,1,1,1,0,1,0,1,1,0,0,0,0,1,1,1,1,1],[1,0,1,0,1,0,0,0,1,0,1,0,0,0,0,0,0,0,0,0],[0,0,1,0,1,1,1,1,0,1,1,1,1,1,0,0,1,0,0,0],[0,1,1,0,0,1,1,0,1,0,0,1,1,1,1,1,0,0,0,1],[0,0,0,1,0,0,0,0,0,0,0,0,0,0,0,0,1,0,0,1],[0,1,1,0,0,1,1,0,0,1,0,1,0,1,1,0,1,1,1,1],[1,0,0,0,0,0,1,0,1,0,0,0,0,1,1,1,0,0,0,0],[1,0,1,0,1,0,0,0,0,1,0,0,0,1,1,0,0,0,0,0],[1,1,1,0,0,1,0,1,1,1,0,1,0,0,1,1,0,1,1,0],[1,0,1,0,0,0,1,1,0,1,0,0,0,1,0,1,1,0,1,0],[1,1,1,0,0,1,1,1,0,0,0,1,1,0,0,0,0,1,1,1],[1,1,0,1,1,0,0,0,1,0,1,0,0,1,1,1,0,1,0,0],[0,0,0,0,0,1,0,0,1,0,1,1,0,1,1,1,0,0,0,0],[0,0,0,0,0,0,0,1,0,0,1,0,0,0,1,1,1,1,1,0],[1,0,0,0,0,1,0,1,0,0,0,0,0,0,1,0,1,0,0,0]],"displayWidth":172,"displayHeight":172,"spacing":100,"style":{"gridBorderColor":"#ffffff","gridBorderWidth":"3","dotColor":"#ffffff","dotLineWidth":"1"}},"pluginResponse":[{"startTime":79712.49999990687,"rt":2685.9999999869615,"response":[{"id":0,"name":"Left","answer":100,"prompt":"Left","lastChangedTime":81675.49999989569},{"id":1,"name":"Right","answer":"50","prompt":"Right","lastChangedTime":null}],"stimulusOffTime":899.9999999068677,"trial_type":"canvas-sliders-response","trial_index":24,"time_elapsed":82289,"internal_node_id":"0.0-7.0-0.5"},{"choiceTime":0,"choice":1,"totalTime":2002.000000094995,"image":"http://localhost:8080/ExploringSocialMetacognition/assets/image/advisor1.png","adviceTime":2002.000000094995,"trial_type":"jspsych-jas-present-advice-choice","trial_index":25,"time_elapsed":84292,"internal_node_id":"0.0-7.0-1.5"},{"startTime":84402.49999985099,"rt":2471.000000135973,"response":[{"id":0,"name":"Left","answer":100,"prompt":"Left","lastChangedTime":86268.50000000559},{"id":1,"name":"Right","answer":"50","prompt":"Right","lastChangedTime":null}],"trial_type":"canvas-sliders-response","trial_index":26,"time_elapsed":86764,"internal_node_id":"0.0-7.0-2.5"}],"advisorAgrees":true},{"block":1,"advisorId":1,"choice":[],"answer":[0,0],"confidence":[50,50],"whichSide":0,"practice":true,"feedback":true,"warnings":["getConfidenceCategory: too few trials available to estimate confidence"],"stimulusDrawTime":[87775.49999998882],"stimulusOffTime":[900.0000001396984,null],"fixationDrawTime":[87275.49999998882],"id":10,"dotDifference":18,"grid":{"dotCountL":218,"dotCountR":182,"gridWidth":20,"gridHeight":20,"dotWidth":2,"dotHeight":2,"paddingX":6,"paddingY":6,"gridL":[[1,0,0,1,0,1,0,1,1,0,1,1,1,1,0,1,1,1,0,1],[0,0,0,1,0,0,1,1,1,0,0,0,1,0,0,0,1,1,0,1],[1,1,1,1,1,0,0,1,1,0,1,0,1,1,0,1,0,0,0,1],[1,0,0,0,0,1,1,1,1,0,1,1,1,1,0,0,0,1,0,1],[0,1,1,1,0,1,1,1,0,0,1,1,1,0,0,0,0,0,1,1],[0,0,1,0,1,1,0,1,1,1,1,1,0,1,1,0,1,0,1,0],[1,1,1,1,0,1,1,1,0,0,1,1,1,1,1,1,1,1,1,1],[1,0,1,1,1,1,1,1,0,0,1,1,1,0,1,1,0,1,1,0],[1,0,0,1,0,1,1,1,1,1,0,1,0,1,1,0,0,1,0,0],[0,0,0,0,0,1,1,0,1,1,0,0,1,0,0,0,1,0,0,0],[1,1,0,1,1,0,1,0,0,1,0,1,0,0,0,0,0,0,1,0],[1,1,0,1,1,1,1,0,0,0,1,1,0,1,1,1,0,0,1,1],[0,1,0,0,0,1,0,0,0,1,1,1,1,0,0,1,1,1,0,0],[1,1,0,0,1,0,1,0,0,0,0,1,0,1,0,1,1,1,0,1],[1,0,0,0,1,1,1,0,1,1,1,1,0,0,0,1,1,1,0,0],[1,1,0,0,1,1,1,0,0,1,1,1,0,1,1,1,0,0,1,1],[0,0,0,0,0,1,1,1,0,1,1,0,0,0,1,0,0,0,0,1],[0,1,0,1,0,1,0,1,0,1,1,0,0,1,0,1,1,1,1,1],[1,0,0,1,1,0,1,1,1,1,1,0,1,0,0,0,1,1,0,0],[1,1,1,1,0,0,1,1,0,0,0,0,0,0,0,1,0,0,1,1]],"gridR":[[0,1,0,1,1,1,0,1,1,0,0,0,0,1,1,0,1,0,1,0],[1,0,1,0,0,1,1,1,0,0,0,1,1,1,0,1,0,0,0,0],[1,0,1,1,0,0,0,1,0,0,0,1,1,0,0,0,1,0,1,1],[0,1,0,0,0,1,1,1,1,1,1,0,0,0,1,1,0,1,0,1],[0,1,0,1,0,0,1,0,1,1,0,1,0,1,1,0,1,0,0,1],[1,0,0,1,1,0,0,0,0,0,0,1,1,0,1,0,1,1,0,1],[0,0,0,0,0,1,0,1,0,0,1,0,1,1,0,1,0,1,0,1],[1,1,0,0,1,0,0,1,0,1,0,0,1,1,0,0,0,0,1,1],[1,1,0,0,1,1,0,1,0,1,0,0,0,0,1,0,0,0,0,1],[0,1,0,1,0,1,0,1,1,1,1,1,1,0,0,0,1,0,1,1],[0,0,0,1,0,0,0,0,0,0,0,1,1,1,0,1,0,1,0,1],[0,0,0,0,0,0,0,0,0,1,0,0,1,0,1,0,0,1,1,0],[1,0,1,0,1,0,0,0,1,0,0,0,1,0,0,0,1,1,0,1],[1,1,1,1,1,0,1,1,1,1,0,0,0,0,1,0,0,1,0,0],[1,0,1,1,1,1,0,0,0,1,0,0,1,1,1,1,0,1,0,0],[1,1,0,0,0,0,0,1,0,0,0,1,1,1,0,1,1,0,1,0],[0,0,0,1,1,1,0,1,1,0,0,1,0,0,0,0,0,0,0,0],[1,0,1,0,0,1,1,1,0,1,0,0,0,1,1,0,0,0,1,1],[1,0,1,0,0,0,1,1,1,1,0,0,1,1,0,1,0,1,0,1],[0,1,0,0,1,0,0,0,0,1,1,1,1,1,0,0,1,0,1,0]],"displayWidth":172,"displayHeight":172,"spacing":100,"style":{"gridBorderColor":"#ffffff","gridBorderWidth":"3","dotColor":"#ffffff","dotLineWidth":"1"}},"pluginResponse":[{"startTime":87075.49999980256,"rt":3432.0000000298023,"response":[{"id":0,"name":"Left","answer":50,"prompt":"Left","lastChangedTime":89797.49999986961},{"id":1,"name":"Right","answer":"50","prompt":"Right","lastChangedTime":null}],"stimulusOffTime":900.0000001396984,"trial_type":"canvas-sliders-response","trial_index":27,"time_elapsed":90399,"internal_node_id":"0.0-7.0-0.6"},{"choiceTime":0,"choice":1,"totalTime":2001.9999998621643,"image":"http://localhost:8080/ExploringSocialMetacognition/assets/image/advisor1.png","adviceTime":2001.9999998621643,"trial_type":"jspsych-jas-present-advice-choice","trial_index":28,"time_elapsed":92401,"internal_node_id":"0.0-7.0-1.6"},{"startTime":92510.49999985844,"rt":1725.0000000931323,"response":[{"id":0,"name":"Left","answer":50,"prompt":"Left","lastChangedTime":93500.49999984913},{"id":1,"name":"Right","answer":"50","prompt":"Right","lastChangedTime":null}],"trial_type":"canvas-sliders-response","trial_index":29,"time_elapsed":94126,"internal_node_id":"0.0-7.0-2.6"}],"advisorAgrees":false},{"block":1,"advisorId":1,"choice":[],"answer":[0,0],"confidence":[100,100],"whichSide":0,"practice":true,"feedback":true,"warnings":["getConfidenceCategory: too few trials available to estimate confidence"],"stimulusDrawTime":[95136.49999978952],"stimulusOffTime":[902.0000000018626,null],"fixationDrawTime":[94637.49999995343],"id":11,"dotDifference":15,"grid":{"dotCountL":215,"dotCountR":185,"gridWidth":20,"gridHeight":20,"dotWidth":2,"dotHeight":2,"paddingX":6,"paddingY":6,"gridL":[[1,1,0,1,0,0,0,1,1,0,0,1,0,1,1,0,1,1,1,0],[1,0,1,1,1,0,1,1,1,1,1,1,1,0,1,0,1,0,1,0],[0,0,1,0,0,0,0,0,1,0,0,1,1,0,0,1,0,0,0,0],[0,1,0,0,1,1,0,1,0,1,1,1,0,0,1,0,1,1,0,1],[1,0,1,0,0,0,1,0,1,0,1,1,1,0,1,1,1,0,0,1],[0,1,1,1,1,0,0,1,1,1,0,1,0,0,1,0,0,0,1,1],[0,1,1,0,1,1,0,1,1,1,1,0,1,0,0,1,0,1,0,1],[1,1,1,1,0,1,0,1,0,1,0,1,1,1,0,0,1,0,1,1],[0,1,1,1,1,1,1,0,0,1,1,1,1,0,1,0,1,1,0,1],[1,0,1,1,1,0,0,1,0,0,1,1,0,1,1,0,1,0,1,1],[0,0,0,0,0,1,1,1,0,0,1,0,0,0,0,1,0,1,1,0],[1,0,1,0,1,1,0,0,1,0,0,1,1,1,1,0,1,0,0,0],[1,0,0,1,1,1,0,1,0,0,1,0,1,1,1,0,0,1,0,0],[1,1,0,1,0,0,1,1,1,1,1,1,0,0,1,0,0,0,0,1],[0,1,0,1,1,1,0,1,1,1,0,1,0,1,1,0,0,0,0,0],[1,1,1,1,0,1,1,1,1,0,1,0,1,1,1,1,1,0,0,0],[1,1,0,1,1,0,0,1,0,1,0,0,1,0,1,0,0,1,0,1],[0,1,0,1,1,1,0,1,0,1,1,1,0,0,0,1,1,1,0,0],[0,1,0,1,0,0,1,1,1,0,0,0,1,1,0,0,0,0,0,1],[0,0,0,1,1,0,0,1,1,1,1,1,0,0,0,1,1,1,0,0]],"gridR":[[0,0,0,1,1,0,1,1,0,1,0,0,1,0,0,0,1,0,1,0],[0,0,1,0,1,1,0,0,0,1,0,0,1,1,0,0,0,0,0,0],[1,0,1,1,1,1,0,1,0,1,0,0,0,1,0,1,1,0,0,1],[0,0,1,0,1,1,1,1,0,0,1,0,1,1,1,0,1,1,1,0],[1,0,1,1,0,0,1,0,1,0,0,1,0,0,1,0,1,0,0,1],[0,0,1,0,1,1,0,0,0,1,0,1,1,0,0,0,1,0,0,0],[1,0,1,0,1,0,1,0,0,0,0,1,0,1,1,0,1,0,1,0],[1,0,1,0,1,1,0,1,1,1,0,0,0,0,0,1,0,0,0,1],[0,0,0,1,0,1,0,0,1,1,1,1,0,0,1,0,0,0,0,0],[1,0,0,1,1,0,0,1,0,1,1,0,1,1,0,1,1,1,1,0],[1,0,0,1,1,1,0,1,1,0,0,1,0,0,1,1,0,1,1,0],[1,0,0,1,0,1,1,1,0,0,0,1,0,1,0,1,1,0,0,0],[0,0,0,1,0,0,1,1,1,1,1,0,0,0,1,0,1,0,0,1],[1,0,1,1,0,0,0,0,0,0,0,0,1,1,0,0,0,0,0,0],[0,1,1,0,1,1,0,1,1,1,0,1,0,0,0,0,1,1,1,0],[0,0,1,1,0,1,0,1,1,1,0,0,1,0,0,0,1,0,0,0],[0,0,0,1,0,1,1,0,1,0,1,0,1,1,0,1,1,0,1,1],[0,1,0,0,1,0,0,1,1,1,0,0,1,1,1,1,0,0,1,1],[0,0,1,0,0,1,1,1,0,0,1,0,1,1,1,1,0,0,0,1],[1,1,1,0,1,0,0,0,0,1,0,1,0,1,0,0,1,1,0,1]],"displayWidth":172,"displayHeight":172,"spacing":100,"style":{"gridBorderColor":"#ffffff","gridBorderWidth":"3","dotColor":"#ffffff","dotLineWidth":"1"}},"pluginResponse":[{"startTime":94436.49999983609,"rt":3224.00000016205,"response":[{"id":0,"name":"Left","answer":100,"prompt":"Left","lastChangedTime":97020.49999986775},{"id":1,"name":"Right","answer":"50","prompt":"Right","lastChangedTime":null}],"stimulusOffTime":902.0000000018626,"trial_type":"canvas-sliders-response","trial_index":30,"time_elapsed":97552,"internal_node_id":"0.0-7.0-0.7"},{"choiceTime":0,"choice":1,"totalTime":2001.9999998621643,"image":"http://localhost:8080/ExploringSocialMetacognition/assets/image/advisor1.png","adviceTime":2001.9999998621643,"trial_type":"jspsych-jas-present-advice-choice","trial_index":31,"time_elapsed":99554,"internal_node_id":"0.0-7.0-1.7"},{"startTime":99664.4999999553,"rt":2280.0000000279397,"response":[{"id":0,"name":"Left","answer":100,"prompt":"Left","lastChangedTime":101309.49999997392},{"id":1,"name":"Right","answer":"50","prompt":"Right","lastChangedTime":null}],"trial_type":"canvas-sliders-response","trial_index":32,"time_elapsed":101835,"internal_node_id":"0.0-7.0-2.7"}],"advisorAgrees":true},{"block":1,"advisorId":1,"choice":[],"answer":[1,1],"confidence":[83,81],"whichSide":1,"practice":true,"feedback":true,"warnings":["getConfidenceCategory: too few trials available to estimate confidence"],"stimulusDrawTime":[102845.49999982119],"stimulusOffTime":[900.0000001396984,null],"fixationDrawTime":[102345.49999982119],"id":12,"dotDifference":12,"grid":{"dotCountL":188,"dotCountR":212,"gridWidth":20,"gridHeight":20,"dotWidth":2,"dotHeight":2,"paddingX":6,"paddingY":6,"gridL":[[1,1,0,0,0,0,1,0,0,1,0,1,1,0,1,1,0,0,0,1],[1,1,0,0,1,1,1,1,0,0,1,1,0,1,0,0,0,1,0,1],[1,0,1,0,1,1,1,1,0,0,0,1,0,0,0,1,1,1,1,0],[1,1,0,1,1,0,0,1,1,0,0,1,0,0,0,0,1,1,1,1],[1,1,1,0,1,0,0,1,0,0,0,1,1,0,0,0,0,0,0,0],[0,1,0,0,1,0,1,1,0,1,0,1,1,1,0,1,0,1,1,1],[1,0,1,1,1,1,1,1,0,1,0,0,0,0,0,0,1,1,1,1],[0,1,1,1,0,1,0,0,0,0,1,0,1,0,1,0,0,1,0,1],[1,0,1,0,1,1,0,0,1,0,0,1,1,0,0,1,0,1,1,0],[0,1,0,1,1,0,1,0,0,1,0,0,0,0,1,1,1,0,0,0],[0,1,1,1,0,0,1,1,0,0,1,0,0,0,1,0,0,1,1,0],[0,0,0,0,1,0,0,0,1,0,1,0,0,1,0,1,1,0,1,1],[0,0,0,0,1,0,1,0,0,1,0,0,1,1,0,0,1,1,0,0],[1,1,1,1,0,0,0,1,0,1,0,1,0,1,0,1,0,1,1,0],[1,0,0,0,0,1,0,0,1,0,1,0,1,1,0,0,0,1,1,1],[0,1,1,0,1,0,0,0,1,1,1,1,0,0,1,0,0,0,0,0],[0,0,1,1,0,1,0,1,0,1,0,0,0,0,0,0,0,0,1,0],[0,1,1,0,1,0,0,0,1,1,1,1,0,1,1,0,0,1,0,0],[0,0,0,1,1,0,0,0,0,1,1,1,0,1,0,0,1,0,0,1],[0,1,0,1,1,0,1,1,1,1,0,0,1,0,1,1,0,0,1,1]],"gridR":[[1,0,1,1,0,1,1,0,0,0,0,1,1,1,1,1,0,1,0,0],[0,0,0,0,0,0,0,0,1,1,0,0,1,0,1,1,1,0,0,1],[1,1,0,1,1,1,0,1,0,0,1,0,0,0,0,1,0,1,1,0],[1,0,0,1,0,1,1,1,0,0,0,0,1,0,0,1,1,1,1,0],[1,0,1,0,0,1,1,1,0,1,0,0,0,1,1,1,0,1,0,1],[0,0,0,1,0,1,0,0,1,1,1,0,1,1,1,0,1,1,1,1],[1,0,1,0,0,0,1,0,0,1,1,0,0,1,1,0,1,1,1,1],[0,0,1,0,0,1,0,1,0,0,1,1,0,0,1,0,0,1,1,1],[1,1,0,0,1,0,1,1,0,1,0,0,0,0,1,0,0,1,0,0],[1,1,1,1,1,1,0,1,1,0,1,1,1,1,0,1,0,1,0,0],[0,0,1,0,1,0,0,0,0,1,0,0,1,1,1,0,1,0,1,1],[0,0,1,1,1,1,0,0,1,0,0,1,1,1,1,0,1,1,1,0],[1,1,1,1,0,1,0,1,1,1,0,1,1,0,1,0,0,1,1,1],[0,0,1,0,0,0,0,1,0,1,0,0,1,0,0,1,0,0,0,1],[0,1,1,1,0,0,0,0,0,1,0,1,0,1,0,1,0,0,1,0],[1,0,0,1,0,1,0,1,0,1,1,0,1,1,0,0,0,1,1,0],[0,0,0,1,0,1,0,1,0,1,1,1,1,1,0,0,0,1,1,0],[0,1,1,1,0,0,1,1,0,1,0,1,1,0,1,0,1,0,0,1],[0,1,1,1,0,1,1,0,0,1,1,1,0,1,1,1,1,1,1,1],[0,1,1,1,1,0,1,0,1,1,0,1,1,1,1,0,1,1,1,0]],"displayWidth":172,"displayHeight":172,"spacing":100,"style":{"gridBorderColor":"#ffffff","gridBorderWidth":"3","dotColor":"#ffffff","dotLineWidth":"1"}},"pluginResponse":[{"startTime":102145.49999986775,"rt":2121.000000042841,"response":[{"id":0,"name":"Left","answer":50,"prompt":"Left","lastChangedTime":null},{"id":1,"name":"Right","answer":"83","prompt":"Right","lastChangedTime":103829.49999999255}],"stimulusOffTime":900.0000001396984,"trial_type":"canvas-sliders-response","trial_index":33,"time_elapsed":104158,"internal_node_id":"0.0-7.0-0.8"},{"choiceTime":0,"choice":1,"totalTime":2002.000000094995,"image":"http://localhost:8080/ExploringSocialMetacognition/assets/image/advisor1.png","adviceTime":2002.000000094995,"trial_type":"jspsych-jas-present-advice-choice","trial_index":34,"time_elapsed":106160,"internal_node_id":"0.0-7.0-1.8"},{"startTime":106270.49999986775,"rt":1502.000000094995,"response":[{"id":0,"name":"Left","answer":50,"prompt":"Left","lastChangedTime":null},{"id":1,"name":"Right","answer":"81","prompt":"Right","lastChangedTime":107308.49999981001}],"trial_type":"canvas-sliders-response","trial_index":35,"time_elapsed":107664,"internal_node_id":"0.0-7.0-2.8"}],"advisorAgrees":false},{"block":1,"advisorId":1,"choice":[],"answer":[1,1],"confidence":[100,100],"whichSide":1,"practice":true,"feedback":true,"warnings":["getConfidenceCategory: too few trials available to estimate confidence"],"stimulusDrawTime":[108677.49999999069],"stimulusOffTime":[901.0000000707805,null],"fixationDrawTime":[108176.49999982677],"id":13,"dotDifference":9,"grid":{"dotCountL":191,"dotCountR":209,"gridWidth":20,"gridHeight":20,"dotWidth":2,"dotHeight":2,"paddingX":6,"paddingY":6,"gridL":[[1,0,0,0,0,0,1,0,1,1,1,0,1,1,1,0,1,1,1,1],[1,1,1,1,0,0,1,1,1,0,1,1,0,1,1,1,1,0,0,0],[0,1,1,0,0,0,1,1,1,0,0,0,1,0,1,1,1,1,1,0],[0,1,1,0,1,1,0,1,0,0,0,1,1,0,0,1,0,0,0,0],[0,0,1,0,1,1,0,0,0,0,1,1,1,1,1,0,0,0,1,1],[1,0,0,0,1,0,0,0,0,1,0,1,1,0,0,1,0,0,1,1],[0,0,0,1,1,0,0,0,0,1,1,0,1,0,0,1,0,1,1,0],[0,0,1,1,0,0,1,1,1,0,0,0,0,0,1,1,0,1,0,1],[1,1,1,1,0,0,0,1,0,0,1,1,1,0,0,1,0,1,1,1],[1,0,0,0,0,0,0,0,0,0,0,0,0,0,1,1,1,1,0,1],[0,0,1,0,0,0,1,0,1,1,0,0,0,1,1,0,1,1,0,1],[1,0,0,0,0,1,0,1,0,1,1,0,0,0,1,0,1,0,1,1],[0,1,0,1,0,0,1,0,1,0,0,0,1,1,0,0,0,0,1,0],[1,1,1,0,0,1,1,1,0,1,1,0,1,0,1,1,1,0,0,0],[1,1,1,1,1,0,0,0,1,0,1,1,0,0,1,1,0,0,1,1],[0,0,0,1,0,1,1,1,0,0,0,1,0,1,1,0,0,1,0,0],[1,0,0,1,1,1,0,0,0,1,1,1,1,0,0,1,0,0,1,1],[0,0,0,1,1,0,0,1,1,0,0,0,0,0,0,0,1,1,0,1],[1,0,0,0,1,1,1,1,0,1,0,1,0,1,1,1,0,1,0,1],[1,0,0,1,0,1,0,0,0,1,1,0,0,0,0,0,0,1,1,0]],"gridR":[[0,1,1,1,0,1,0,0,0,0,0,1,0,1,1,1,1,1,1,1],[1,1,1,0,0,0,0,0,1,1,0,0,1,1,1,1,1,0,1,1],[0,1,0,0,0,0,1,1,0,0,1,0,0,1,0,0,0,0,0,0],[1,0,0,1,1,1,1,1,0,1,1,1,0,1,1,1,1,1,1,1],[1,0,1,0,1,0,0,1,0,0,0,1,0,1,1,1,0,0,0,0],[1,0,1,0,1,1,1,1,1,1,0,0,1,1,1,1,1,1,0,0],[1,1,1,0,1,1,1,0,0,0,0,0,1,0,0,1,1,1,1,0],[0,0,1,1,0,1,0,1,0,1,1,1,0,0,0,0,0,0,0,0],[0,0,1,0,1,0,1,1,0,1,1,1,1,1,0,1,1,0,0,1],[0,1,0,1,1,0,1,0,0,0,0,1,1,1,1,1,0,1,1,1],[1,0,1,0,1,0,1,0,1,1,1,1,1,0,1,0,1,0,0,0],[0,0,0,1,0,1,0,1,0,1,0,1,1,1,1,1,0,1,0,1],[1,0,0,1,0,1,0,1,0,0,0,1,0,0,1,0,1,0,1,0],[1,0,0,1,1,1,0,1,1,1,1,0,0,1,1,0,1,0,1,1],[1,1,0,1,1,1,1,1,1,0,0,0,0,1,1,0,1,1,0,0],[1,1,0,0,0,1,0,1,1,0,1,1,1,1,1,0,1,0,0,0],[1,1,0,1,0,1,1,1,0,0,1,1,1,0,1,0,0,0,0,1],[1,0,1,0,0,0,0,1,1,0,0,0,1,0,0,0,0,1,0,1],[0,1,0,1,1,1,0,0,0,0,0,1,1,0,1,0,1,0,0,0],[0,1,0,0,0,1,0,0,0,1,0,1,1,0,1,0,1,0,1,0]],"displayWidth":172,"displayHeight":172,"spacing":100,"style":{"gridBorderColor":"#ffffff","gridBorderWidth":"3","dotColor":"#ffffff","dotLineWidth":"1"}},"pluginResponse":[{"startTime":107975.49999994226,"rt":3271.9999998807907,"response":[{"id":0,"name":"Left","answer":50,"prompt":"Left","lastChangedTime":null},{"id":1,"name":"Right","answer":"100","prompt":"Right","lastChangedTime":110658.49999990314}],"stimulusOffTime":901.0000000707805,"trial_type":"canvas-sliders-response","trial_index":36,"time_elapsed":111138,"internal_node_id":"0.0-7.0-0.9"},{"choiceTime":0,"choice":1,"totalTime":2001.9999998621643,"image":"http://localhost:8080/ExploringSocialMetacognition/assets/image/advisor1.png","adviceTime":2001.9999998621643,"trial_type":"jspsych-jas-present-advice-choice","trial_index":37,"time_elapsed":113141,"internal_node_id":"0.0-7.0-1.9"},{"startTime":113250.49999984913,"rt":4049.000000115484,"response":[{"id":0,"name":"Left","answer":50,"prompt":"Left","lastChangedTime":null},{"id":1,"name":"Right","answer":"100","prompt":"Right","lastChangedTime":116226.49999987334}],"trial_type":"canvas-sliders-response","trial_index":38,"time_elapsed":117192,"internal_node_id":"0.0-7.0-2.9"}],"advisorAgrees":false},{"block":1,"advisorId":1,"choice":[],"answer":[1,1],"confidence":[100,100],"whichSide":0,"practice":true,"feedback":true,"warnings":["getConfidenceCategory: too few trials available to estimate confidence"],"stimulusDrawTime":[118201.49999996647],"stimulusOffTime":[900.9999998379499,null],"fixationDrawTime":[117701.49999996647],"id":14,"dotDifference":6,"grid":{"dotCountL":206,"dotCountR":194,"gridWidth":20,"gridHeight":20,"dotWidth":2,"dotHeight":2,"paddingX":6,"paddingY":6,"gridL":[[1,0,0,1,1,0,0,0,1,1,0,1,1,0,0,0,0,1,0,1],[1,0,0,1,1,0,1,0,1,0,1,0,0,0,0,0,1,1,1,0],[1,1,0,1,1,0,1,0,1,0,0,0,1,0,0,1,1,1,0,1],[1,0,1,0,1,0,1,1,1,1,1,1,1,0,1,0,0,1,0,1],[0,0,1,1,1,0,1,1,0,1,1,1,1,0,0,0,1,1,0,0],[1,0,1,1,1,1,1,0,1,1,1,1,1,1,1,0,0,1,0,1],[1,1,1,1,1,1,0,0,0,1,1,1,0,0,1,0,0,0,1,0],[1,0,1,1,1,0,0,0,0,0,1,1,1,0,1,0,1,1,0,1],[0,0,1,0,1,0,1,0,0,0,0,1,1,0,0,0,1,1,0,1],[0,0,0,0,0,1,1,0,1,1,1,1,0,1,0,1,0,0,0,1],[1,0,0,0,0,0,1,1,1,1,1,1,0,1,0,1,0,1,1,1],[1,1,0,1,1,1,0,0,1,0,0,1,1,0,0,0,0,1,0,1],[0,0,1,1,1,0,0,0,1,1,1,0,0,1,1,1,1,0,0,1],[0,0,0,0,1,1,0,0,1,0,1,0,0,0,0,1,1,1,0,1],[0,0,1,0,1,0,1,0,0,0,0,0,1,0,0,0,1,0,0,0],[1,0,0,1,1,0,1,1,0,1,1,0,1,1,1,0,1,1,1,0],[0,0,0,1,1,1,1,0,0,1,0,1,1,0,1,1,1,1,0,0],[0,1,0,1,0,0,0,1,0,0,1,1,1,1,0,1,0,0,1,1],[1,1,0,0,0,0,0,0,0,0,0,0,0,1,0,0,1,0,1,0],[0,1,1,1,0,1,1,1,1,1,0,1,1,1,1,0,1,0,1,0]],"gridR":[[1,1,1,0,0,1,0,1,0,0,1,0,1,0,0,1,1,0,1,1],[0,1,0,0,0,0,0,0,0,1,0,0,0,1,0,1,0,0,0,0],[1,0,1,0,0,1,0,1,0,0,1,0,0,0,0,0,0,1,0,0],[1,1,1,0,0,0,0,0,1,1,1,1,0,0,1,0,1,1,1,0],[0,0,0,0,0,1,0,0,0,1,0,1,0,1,1,1,0,1,1,0],[0,1,0,1,1,0,0,1,0,0,0,0,0,1,0,1,1,1,1,1],[1,0,0,0,1,1,0,0,0,0,0,0,1,1,1,1,1,0,0,1],[1,1,0,0,0,1,1,1,0,0,1,1,0,1,1,0,0,0,1,0],[0,0,0,1,1,1,1,0,1,0,0,1,1,1,1,1,0,0,0,1],[1,1,0,1,0,1,1,0,1,0,0,1,1,0,0,0,0,1,1,1],[0,0,1,0,0,1,0,1,0,0,1,1,0,1,0,0,0,1,0,0],[1,1,1,0,0,0,1,0,1,1,1,0,1,0,0,0,0,1,1,1],[1,1,0,1,0,0,1,0,1,1,0,0,1,0,0,0,1,1,0,1],[0,1,1,1,0,0,0,1,1,0,0,1,0,0,0,1,0,0,1,1],[1,1,0,0,1,1,1,1,0,0,0,1,0,1,1,0,0,1,0,1],[0,1,1,0,0,0,1,1,0,1,1,0,0,0,1,0,1,1,1,0],[1,0,1,1,0,1,1,1,1,1,0,1,1,1,1,1,0,0,0,1],[0,1,0,0,0,1,1,0,1,0,1,0,1,1,1,1,0,0,1,1],[1,0,0,0,1,1,0,0,1,0,1,0,0,1,1,1,0,1,0,0],[0,0,1,1,0,0,1,0,0,1,1,0,1,1,1,1,1,0,1,0]],"displayWidth":172,"displayHeight":172,"spacing":100,"style":{"gridBorderColor":"#ffffff","gridBorderWidth":"3","dotColor":"#ffffff","dotLineWidth":"1"}},"pluginResponse":[{"startTime":117501.50000001304,"rt":2847.9999999981374,"response":[{"id":0,"name":"Left","answer":50,"prompt":"Left","lastChangedTime":null},{"id":1,"name":"Right","answer":"100","prompt":"Right","lastChangedTime":119618.49999986589}],"stimulusOffTime":900.9999998379499,"trial_type":"canvas-sliders-response","trial_index":39,"time_elapsed":120242,"internal_node_id":"0.0-7.0-0.10"},{"choiceTime":0,"choice":1,"totalTime":2001.9999998621643,"image":"http://localhost:8080/ExploringSocialMetacognition/assets/image/advisor1.png","adviceTime":2001.9999998621643,"trial_type":"jspsych-jas-present-advice-choice","trial_index":40,"time_elapsed":122244,"internal_node_id":"0.0-7.0-1.10"},{"startTime":122353.49999996834,"rt":2903.999999864027,"response":[{"id":0,"name":"Left","answer":50,"prompt":"Left","lastChangedTime":null},{"id":1,"name":"Right","answer":"100","prompt":"Right","lastChangedTime":124560.499999905}],"trial_type":"canvas-sliders-response","trial_index":41,"time_elapsed":125150,"internal_node_id":"0.0-7.0-2.10"}],"advisorAgrees":true},{"block":1,"advisorId":1,"choice":[],"answer":[0,0],"confidence":[100,100],"whichSide":0,"practice":true,"feedback":true,"warnings":["getConfidenceCategory: too few trials available to estimate confidence"],"stimulusDrawTime":[126159.49999983422],"stimulusOffTime":[899.9999999068677,null],"fixationDrawTime":[125659.49999983422],"id":15,"dotDifference":9,"grid":{"dotCountL":209,"dotCountR":191,"gridWidth":20,"gridHeight":20,"dotWidth":2,"dotHeight":2,"paddingX":6,"paddingY":6,"gridL":[[0,1,1,0,1,1,1,1,0,0,0,1,1,0,0,0,0,1,0,1],[1,1,1,0,0,0,0,0,0,0,0,1,0,1,1,1,0,1,1,0],[0,1,1,1,1,0,1,1,0,0,1,1,1,1,1,1,1,1,0,1],[1,0,1,0,0,1,0,1,1,0,1,1,0,1,0,1,1,1,0,1],[0,0,0,0,1,0,0,0,0,1,1,0,0,0,0,1,0,0,0,1],[1,1,1,1,0,1,0,0,0,1,0,0,1,1,1,1,0,0,0,1],[0,0,1,1,0,0,1,1,1,1,0,0,1,1,1,0,1,1,1,1],[1,1,1,0,1,1,0,1,0,0,1,1,0,0,0,1,1,0,0,0],[0,0,1,1,0,0,1,0,1,1,0,0,1,1,0,0,1,1,0,0],[1,0,1,1,1,0,1,0,1,1,1,0,0,0,1,1,1,0,0,1],[0,0,0,0,1,1,1,1,1,0,1,1,0,1,0,0,1,1,1,1],[0,1,1,0,0,1,0,1,0,1,0,1,0,0,1,0,1,0,1,1],[0,1,0,0,1,1,1,1,1,0,1,1,1,0,0,0,1,1,0,1],[0,0,1,0,1,0,0,0,0,1,1,0,0,1,1,1,0,0,1,1],[1,0,0,0,0,1,0,0,1,0,1,1,0,0,1,1,0,0,0,1],[0,1,0,1,0,0,1,1,1,1,0,1,0,0,0,1,1,1,0,0],[1,0,1,1,1,0,0,0,0,1,0,0,1,1,0,1,1,1,0,0],[0,0,0,0,1,1,1,1,1,0,1,1,0,0,1,1,1,0,1,1],[0,1,1,1,1,0,0,1,0,1,1,0,1,1,0,0,1,0,1,0],[1,1,0,1,0,0,0,0,1,0,0,1,0,1,0,0,1,1,0,1]],"gridR":[[0,1,1,0,0,1,0,1,0,1,0,0,0,0,1,0,1,1,1,0],[1,0,0,0,1,1,1,1,0,1,1,0,0,0,1,1,0,0,1,1],[0,1,0,1,1,1,1,1,0,0,1,0,1,0,0,1,0,1,1,1],[0,0,1,1,0,1,0,0,0,0,1,0,1,0,1,0,1,0,0,1],[1,1,0,1,0,0,1,0,1,1,1,1,0,0,1,0,1,0,0,0],[0,0,0,1,1,1,0,0,0,1,0,1,0,0,1,1,1,0,0,0],[1,1,1,0,1,1,1,1,1,1,1,0,0,1,1,0,1,0,1,0],[1,1,0,0,0,0,0,1,0,1,0,1,0,1,0,0,1,1,1,1],[1,0,0,0,0,0,0,1,0,1,0,1,1,0,0,1,1,0,1,0],[0,0,1,1,0,0,0,0,0,0,0,1,0,0,0,1,0,0,0,0],[1,1,0,1,0,1,0,1,0,1,1,0,0,1,1,1,1,0,1,0],[0,0,1,0,0,0,0,1,0,0,1,0,1,0,1,1,0,0,1,0],[1,1,1,0,0,1,0,0,0,1,1,0,0,1,0,1,1,0,1,0],[0,0,1,0,0,1,1,1,0,1,0,0,1,1,1,0,1,1,1,0],[0,1,1,0,1,0,0,1,1,0,0,1,0,1,0,1,1,0,0,0],[0,1,1,0,1,0,0,1,0,0,1,0,0,1,0,1,0,1,1,0],[0,0,1,1,0,0,0,1,0,1,1,1,0,0,1,0,0,1,1,1],[1,0,0,1,1,1,0,1,0,1,0,0,1,0,0,0,1,1,0,1],[1,0,0,1,0,1,1,1,1,1,1,0,1,0,0,0,0,0,0,0],[1,0,0,0,0,0,1,1,0,0,0,1,1,1,0,1,1,0,1,1]],"displayWidth":172,"displayHeight":172,"spacing":100,"style":{"gridBorderColor":"#ffffff","gridBorderWidth":"3","dotColor":"#ffffff","dotLineWidth":"1"}},"pluginResponse":[{"startTime":125459.49999988079,"rt":2898.9999999757856,"response":[{"id":0,"name":"Left","answer":100,"prompt":"Left","lastChangedTime":127622.49999982305},{"id":1,"name":"Right","answer":"50","prompt":"Right","lastChangedTime":null}],"stimulusOffTime":899.9999999068677,"trial_type":"canvas-sliders-response","trial_index":42,"time_elapsed":128251,"internal_node_id":"0.0-7.0-0.11"},{"choiceTime":0,"choice":1,"totalTime":2002.000000094995,"image":"http://localhost:8080/ExploringSocialMetacognition/assets/image/advisor1.png","adviceTime":2002.000000094995,"trial_type":"jspsych-jas-present-advice-choice","trial_index":43,"time_elapsed":130253,"internal_node_id":"0.0-7.0-1.11"},{"startTime":130362.49999981374,"rt":5850.000000093132,"response":[{"id":0,"name":"Left","answer":100,"prompt":"Left","lastChangedTime":134894.49999993667},{"id":1,"name":"Right","answer":"50","prompt":"Right","lastChangedTime":null}],"trial_type":"canvas-sliders-response","trial_index":44,"time_elapsed":136104,"internal_node_id":"0.0-7.0-2.11"}],"advisorAgrees":true},{"type":1,"typeName":"force","block":2,"advisorId":3,"choice":[],"answer":[0,0],"confidence":[100,99],"whichSide":0,"practice":false,"feedback":false,"warnings":["getConfidenceCategory: too few trials available to estimate confidence"],"stimulusDrawTime":[161697.5000000093],"stimulusOffTime":[901.0000000707805,null],"fixationDrawTime":[161197.5000000093],"id":16,"dotDifference":9,"grid":{"dotCountL":209,"dotCountR":191,"gridWidth":20,"gridHeight":20,"dotWidth":2,"dotHeight":2,"paddingX":6,"paddingY":6,"gridL":[[0,0,0,0,1,0,1,1,1,1,1,0,1,0,0,0,0,0,1,1],[1,0,1,0,1,1,0,0,1,1,0,1,1,1,1,0,1,0,1,0],[1,1,0,0,0,0,0,1,0,0,1,1,1,1,1,1,0,1,0,1],[0,1,1,1,1,1,1,0,1,0,1,1,1,0,1,0,1,0,1,1],[0,1,0,1,1,0,1,1,1,0,0,1,0,0,0,1,0,0,1,1],[1,0,1,1,1,0,1,1,0,0,1,1,1,1,1,1,0,0,0,0],[0,1,1,0,0,0,0,0,0,1,1,1,1,0,1,0,1,1,0,0],[1,1,1,1,0,0,0,1,0,1,0,1,0,0,1,0,0,0,0,0],[0,1,1,0,0,1,1,1,1,0,1,1,0,1,0,1,1,1,1,1],[0,0,0,0,1,1,0,0,1,1,0,0,1,1,1,0,0,0,0,0],[0,1,1,1,1,0,0,1,0,0,1,1,0,1,0,1,0,1,1,1],[1,0,0,0,1,0,1,1,0,0,0,0,0,1,1,1,1,1,1,0],[0,1,0,1,1,1,1,0,0,0,1,1,0,0,1,1,1,0,1,0],[1,1,1,0,1,1,0,0,0,1,0,0,0,1,1,0,0,1,1,1],[0,0,1,1,0,0,1,0,0,0,1,0,0,1,0,0,0,0,0,1],[0,1,0,0,1,0,0,1,1,0,1,0,1,0,0,1,1,0,1,0],[1,0,1,1,1,0,0,0,1,1,1,1,0,0,0,1,0,1,1,1],[1,1,0,0,1,1,1,1,0,1,0,0,0,1,1,1,0,1,1,0],[1,0,0,0,0,1,1,1,1,0,0,0,1,0,1,0,1,1,1,0],[0,0,1,1,1,1,0,0,1,0,1,1,0,0,1,0,1,0,0,1]],"gridR":[[1,0,1,0,0,1,1,1,0,1,0,0,0,0,1,1,1,0,0,1],[0,1,0,0,0,1,0,0,0,0,0,0,0,0,0,0,1,0,1,1],[1,1,0,0,0,1,0,1,1,0,0,1,0,0,1,1,0,1,1,0],[1,0,0,0,0,1,0,1,1,0,0,1,0,1,0,1,1,0,0,1],[1,1,1,0,1,0,0,1,1,0,1,0,0,1,0,0,1,1,0,0],[0,1,0,0,1,1,1,0,0,1,0,1,1,0,0,0,1,0,1,0],[0,0,0,0,1,1,1,0,0,1,1,0,1,1,0,1,0,0,1,1],[1,0,0,1,1,1,1,0,0,1,1,1,0,0,0,0,1,1,1,1],[1,1,1,0,0,0,0,0,1,0,1,1,0,1,1,0,0,0,0,0],[1,1,1,0,0,1,1,0,0,0,1,0,0,1,0,0,0,1,1,0],[0,0,0,0,1,1,0,1,0,1,1,0,1,1,1,1,0,0,0,0],[1,0,1,0,0,0,1,1,0,1,1,0,0,0,0,0,1,1,1,1],[1,0,1,1,1,0,0,1,0,0,1,0,1,1,0,1,1,1,1,0],[1,0,1,0,1,1,0,1,1,0,0,0,1,0,0,0,0,1,1,1],[1,1,1,0,0,1,1,1,1,0,0,1,0,1,1,1,1,0,0,0],[0,0,1,1,0,0,1,1,0,0,1,0,1,1,1,0,0,1,0,1],[0,1,0,0,1,0,1,0,1,1,1,1,1,0,1,0,1,1,0,0],[1,1,0,0,1,0,0,1,0,1,0,0,1,1,1,1,0,1,0,1],[0,0,0,0,0,0,0,0,0,1,0,1,0,0,0,0,1,0,0,1],[0,1,0,0,1,0,1,0,1,1,1,0,1,0,1,0,1,1,0,0]],"displayWidth":172,"displayHeight":172,"spacing":100,"style":{"gridBorderColor":"#ffffff","gridBorderWidth":"3","dotColor":"#ffffff","dotLineWidth":"1"}},"pluginResponse":[{"startTime":160996.49999989197,"rt":2516.9999999925494,"response":[{"id":0,"name":"Left","answer":100,"prompt":"Left","lastChangedTime":162922.49999986961},{"id":1,"name":"Right","answer":"50","prompt":"Right","lastChangedTime":null}],"stimulusOffTime":901.0000000707805,"trial_type":"canvas-sliders-response","trial_index":50,"time_elapsed":163405,"internal_node_id":"0.0-13.0-0.0"},{"choiceTime":0,"choice":3,"totalTime":2002.000000094995,"image":"http://localhost:8080/ExploringSocialMetacognition/assets/image/advisor3.png","adviceTime":2002.000000094995,"trial_type":"jspsych-jas-present-advice-choice","trial_index":51,"time_elapsed":165408,"internal_node_id":"0.0-13.0-1.0"},{"startTime":165516.4999999106,"rt":1813.0000000819564,"response":[{"id":0,"name":"Left","answer":99,"prompt":"Left","lastChangedTime":166682.49999987893},{"id":1,"name":"Right","answer":"50","prompt":"Right","lastChangedTime":null}],"trial_type":"canvas-sliders-response","trial_index":52,"time_elapsed":167221,"internal_node_id":"0.0-13.0-2.0"}],"advisorAgrees":true},{"type":2,"typeName":"choice","block":2,"advisorId":3,"choice":[2,3],"answer":[0,0],"confidence":[100,100],"whichSide":0,"practice":false,"feedback":false,"warnings":["getConfidenceCategory: too few trials available to estimate confidence"],"stimulusDrawTime":[168231.4999999944],"stimulusOffTime":[901.0000000707805,null],"fixationDrawTime":[167732.4999999255],"id":17,"dotDifference":6,"grid":{"dotCountL":206,"dotCountR":194,"gridWidth":20,"gridHeight":20,"dotWidth":2,"dotHeight":2,"paddingX":6,"paddingY":6,"gridL":[[1,1,0,0,1,0,0,1,0,0,1,0,0,1,0,1,1,1,1,0],[0,0,1,0,0,1,0,1,1,0,0,1,0,0,1,0,0,0,1,1],[0,1,1,1,1,1,1,0,0,0,0,1,1,0,1,1,1,0,1,0],[0,1,1,0,1,1,0,1,1,0,1,1,1,0,0,1,0,0,1,0],[1,0,1,1,1,0,0,1,0,1,1,1,1,1,0,1,1,1,0,0],[1,0,1,1,1,0,1,0,1,0,0,1,1,0,0,1,1,0,0,0],[1,1,0,0,0,0,1,1,0,1,1,1,1,0,1,0,0,1,1,0],[0,0,1,1,0,0,0,0,1,1,0,0,1,1,1,1,0,0,0,1],[1,0,1,0,0,1,0,1,0,0,0,1,0,1,1,1,1,0,1,1],[1,0,1,0,0,0,0,0,1,0,0,1,0,0,1,1,0,0,1,1],[0,0,0,0,0,0,1,1,1,0,1,0,0,0,0,1,0,1,0,1],[1,0,1,1,1,0,1,1,0,1,1,1,1,0,1,0,0,0,1,0],[0,1,1,0,1,1,1,1,1,1,0,0,0,1,0,0,1,0,1,1],[0,1,1,1,1,1,0,0,1,1,0,1,1,1,0,1,1,0,0,1],[1,1,1,0,0,1,1,0,0,0,0,0,1,1,0,1,0,0,0,1],[0,1,0,0,1,1,1,1,1,1,1,1,0,1,0,0,1,0,0,0],[0,0,0,0,1,0,0,0,0,0,1,1,0,1,1,0,1,0,0,0],[0,0,0,0,0,1,0,1,1,1,0,0,1,1,0,0,1,0,0,0],[1,1,1,1,0,1,0,0,0,0,0,1,0,1,1,1,1,1,1,1],[1,0,0,0,0,1,1,1,1,1,0,0,1,1,1,1,1,1,0,1]],"gridR":[[1,1,0,1,0,0,0,1,1,0,0,1,1,0,0,0,0,0,0,0],[1,1,0,1,0,0,1,0,0,1,0,0,1,1,0,0,1,0,0,1],[0,0,1,0,0,0,1,1,0,1,1,1,1,1,0,0,0,0,0,0],[0,0,1,0,0,0,0,1,0,1,0,0,1,0,1,1,0,0,1,0],[0,0,1,1,1,0,0,0,1,0,0,0,0,1,1,0,1,1,0,0],[1,1,0,0,0,1,1,0,1,0,0,0,1,1,1,0,0,0,1,1],[1,0,0,1,1,0,1,0,1,1,0,1,1,1,1,1,1,1,1,0],[1,1,1,0,1,0,1,1,0,1,0,0,0,0,0,1,1,0,1,1],[0,1,1,1,0,0,1,0,1,0,1,0,0,1,1,1,1,1,1,1],[1,1,0,1,0,0,1,0,1,0,1,0,0,1,1,0,1,1,1,1],[1,1,1,0,0,0,1,1,1,1,1,1,1,0,1,0,0,1,1,0],[1,0,0,0,0,0,0,0,1,1,0,0,0,0,0,1,1,1,0,0],[0,0,1,1,0,1,0,1,0,1,1,1,1,0,0,0,1,1,1,0],[0,0,1,0,0,0,1,1,0,0,1,0,0,1,1,0,1,0,1,0],[0,0,0,1,1,1,0,0,0,0,1,1,0,1,1,0,0,0,1,0],[1,0,0,1,1,1,1,0,1,0,0,1,0,0,1,1,0,0,1,1],[0,1,1,1,1,0,1,0,0,0,1,0,0,1,1,0,0,0,1,1],[0,0,0,1,0,0,0,1,0,1,1,0,0,1,1,1,0,1,0,1],[0,0,1,1,0,0,0,0,0,0,1,1,0,1,0,0,1,0,0,0],[1,0,1,0,1,1,1,0,1,0,0,1,1,1,1,0,1,1,1,0]],"displayWidth":172,"displayHeight":172,"spacing":100,"style":{"gridBorderColor":"#ffffff","gridBorderWidth":"3","dotColor":"#ffffff","dotLineWidth":"1"}},"pluginResponse":[{"startTime":167531.49999980815,"rt":3200.0000001862645,"response":[{"id":0,"name":"Left","answer":100,"prompt":"Left","lastChangedTime":170184.49999997392},{"id":1,"name":"Right","answer":"50","prompt":"Right","lastChangedTime":null}],"stimulusOffTime":901.0000000707805,"trial_type":"canvas-sliders-response","trial_index":53,"time_elapsed":170623,"internal_node_id":"0.0-13.0-0.1"},{"choiceTime":1422.9999999515712,"choice":3,"totalTime":3425.000000046566,"image":"http://localhost:8080/ExploringSocialMetacognition/assets/image/advisor3.png","adviceTime":2002.000000094995,"trial_type":"jspsych-jas-present-advice-choice","trial_index":54,"time_elapsed":174049,"internal_node_id":"0.0-13.0-1.1"},{"startTime":174157.49999997206,"rt":2500.999999931082,"response":[{"id":0,"name":"Left","answer":100,"prompt":"Left","lastChangedTime":175955.49999992363},{"id":1,"name":"Right","answer":"50","prompt":"Right","lastChangedTime":null}],"trial_type":"canvas-sliders-response","trial_index":55,"time_elapsed":176550,"internal_node_id":"0.0-13.0-2.1"}],"advisorAgrees":true},{"type":1,"typeName":"force","block":2,"advisorId":2,"choice":[],"answer":[1,1],"confidence":[100,100],"whichSide":0,"practice":false,"feedback":false,"warnings":["getConfidenceCategory: too few trials available to estimate confidence"],"stimulusDrawTime":[177558.49999981],"stimulusOffTime":[900.0000001396984,null],"fixationDrawTime":[177059.49999997392],"id":18,"dotDifference":3,"grid":{"dotCountL":203,"dotCountR":197,"gridWidth":20,"gridHeight":20,"dotWidth":2,"dotHeight":2,"paddingX":6,"paddingY":6,"gridL":[[1,0,0,0,0,0,0,1,1,0,1,1,0,0,0,0,1,0,0,0],[0,1,1,0,0,0,0,0,0,1,1,1,1,0,1,1,0,0,0,0],[0,1,0,0,0,1,0,0,1,0,1,1,0,0,1,1,0,1,0,0],[1,0,1,1,0,1,1,1,0,0,0,0,0,0,1,0,1,1,1,0],[1,0,1,0,0,1,1,1,1,1,0,1,0,0,0,1,1,0,1,1],[0,1,0,1,0,0,0,1,1,1,1,1,0,1,1,0,1,0,1,1],[1,0,1,0,1,1,1,0,1,0,1,1,1,1,0,1,1,0,1,0],[0,1,1,0,0,1,0,1,1,1,0,1,0,1,1,0,0,0,0,0],[1,0,1,1,1,0,1,1,0,1,1,1,1,0,1,1,1,1,0,1],[1,1,1,1,0,0,0,0,0,0,1,0,1,1,0,1,0,0,1,1],[1,1,1,1,1,1,0,1,0,0,0,1,1,1,1,1,1,0,1,1],[0,1,1,1,1,0,1,0,1,1,0,1,1,1,0,0,0,1,1,0],[0,0,0,1,0,1,0,0,0,0,0,1,1,0,1,0,1,1,0,0],[0,1,0,1,1,0,0,0,1,1,0,0,0,1,0,0,0,0,0,0],[1,0,1,1,1,0,1,1,1,0,1,1,1,1,0,0,1,0,1,0],[0,0,0,1,0,0,0,1,0,0,0,1,1,1,0,0,1,1,1,1],[0,0,0,0,0,1,1,0,0,0,1,1,0,0,0,1,1,0,1,1],[0,1,0,1,0,0,1,0,0,0,0,1,0,0,1,1,1,1,1,1],[1,0,1,0,1,1,1,0,0,0,0,0,1,0,0,1,1,1,0,1],[0,0,0,1,0,0,1,1,0,0,1,1,0,1,1,1,0,1,1,0]],"gridR":[[0,0,0,1,1,1,1,0,0,0,1,0,0,1,0,1,1,1,1,0],[1,0,1,1,0,0,1,0,0,1,0,1,0,1,1,1,0,1,1,1],[1,0,0,1,1,0,1,1,0,1,0,1,1,1,0,1,1,1,0,1],[1,0,0,1,0,1,0,1,1,0,0,1,0,0,1,1,1,1,0,0],[0,0,1,1,0,0,1,0,0,1,0,0,1,1,0,1,0,0,1,1],[1,1,1,1,0,0,1,1,1,1,0,1,1,0,0,0,1,0,0,0],[1,0,0,0,0,0,1,0,0,1,0,0,1,1,0,0,1,1,1,0],[0,1,1,0,0,1,1,1,1,1,1,1,0,1,1,0,1,0,0,0],[0,1,0,0,0,1,1,0,1,0,0,0,1,1,0,1,1,0,1,1],[1,1,1,0,0,1,1,0,0,1,0,1,1,1,0,0,1,0,0,1],[0,0,0,0,0,0,0,0,0,1,1,1,1,0,0,1,0,0,1,1],[1,1,1,0,0,0,1,1,1,1,0,0,0,0,0,0,0,1,1,1],[0,1,0,1,0,1,0,0,1,0,0,1,1,0,0,0,0,0,1,0],[1,0,0,1,1,1,0,1,1,0,1,0,0,0,1,0,1,1,0,0],[1,1,1,1,1,1,1,0,0,1,0,0,0,0,1,1,0,0,0,0],[0,1,0,1,0,1,1,1,1,0,0,1,1,0,1,0,0,1,0,0],[0,1,0,0,1,1,0,0,1,1,1,0,1,0,0,0,1,0,1,1],[1,0,1,0,0,0,1,0,0,0,0,0,0,1,0,0,1,0,1,0],[1,1,0,0,0,1,0,1,0,0,1,1,1,0,1,1,1,1,0,0],[0,1,1,1,0,1,0,0,1,1,0,0,0,0,0,0,1,1,1,1]],"displayWidth":172,"displayHeight":172,"spacing":100,"style":{"gridBorderColor":"#ffffff","gridBorderWidth":"3","dotColor":"#ffffff","dotLineWidth":"1"}},"pluginResponse":[{"startTime":176858.49999985658,"rt":2651.0000000707805,"response":[{"id":0,"name":"Left","answer":50,"prompt":"Left","lastChangedTime":null},{"id":1,"name":"Right","answer":"100","prompt":"Right","lastChangedTime":178850.49999994226}],"stimulusOffTime":900.0000001396984,"trial_type":"canvas-sliders-response","trial_index":56,"time_elapsed":179401,"internal_node_id":"0.0-13.0-0.2"},{"choiceTime":0,"choice":2,"totalTime":2002.000000094995,"image":"http://localhost:8080/ExploringSocialMetacognition/assets/image/advisor2.png","adviceTime":2002.000000094995,"trial_type":"jspsych-jas-present-advice-choice","trial_index":57,"time_elapsed":181403,"internal_node_id":"0.0-13.0-1.2"},{"startTime":181513.49999988452,"rt":1682.0000000298023,"response":[{"id":0,"name":"Left","answer":50,"prompt":"Left","lastChangedTime":null},{"id":1,"name":"Right","answer":"100","prompt":"Right","lastChangedTime":182531.49999980815}],"trial_type":"canvas-sliders-response","trial_index":58,"time_elapsed":183087,"internal_node_id":"0.0-13.0-2.2"}],"advisorAgrees":true},{"type":2,"typeName":"choice","block":2,"advisorId":2,"choice":[2,3],"answer":[1,1],"confidence":[100,100],"whichSide":1,"practice":false,"feedback":false,"warnings":["getConfidenceCategory: too few trials available to estimate confidence"],"stimulusDrawTime":[184099.50000001118],"stimulusOffTime":[899.9999999068677,null],"fixationDrawTime":[183598.49999984726],"id":19,"dotDifference":6,"grid":{"dotCountL":194,"dotCountR":206,"gridWidth":20,"gridHeight":20,"dotWidth":2,"dotHeight":2,"paddingX":6,"paddingY":6,"gridL":[[0,1,1,1,0,0,0,1,0,0,0,0,1,0,0,0,0,0,1,1],[1,0,1,1,0,0,0,0,1,1,0,0,1,0,0,1,0,0,1,1],[0,0,1,1,0,1,0,0,1,1,1,0,0,0,1,1,0,0,1,1],[0,0,0,0,0,1,0,1,0,0,1,1,1,1,0,0,0,0,1,0],[1,1,1,1,1,1,0,0,1,0,1,1,1,1,0,1,0,0,0,1],[1,0,1,0,1,1,1,1,1,1,0,1,1,1,1,0,0,0,0,0],[1,0,0,1,0,1,1,0,0,0,1,0,0,1,1,1,1,1,1,0],[0,0,1,0,1,0,0,1,0,1,1,0,1,1,0,1,0,1,0,1],[0,0,1,1,0,1,1,1,0,0,1,1,0,1,1,0,0,1,0,1],[0,1,1,0,1,0,1,1,0,1,1,1,0,1,1,1,1,1,1,0],[1,0,1,0,1,0,0,0,0,1,0,0,0,1,1,0,0,0,0,1],[0,0,0,0,1,1,0,1,0,0,0,0,0,1,0,0,1,1,1,0],[1,1,1,0,1,0,1,1,0,1,1,1,0,0,0,1,1,1,1,1],[1,1,1,0,1,0,0,0,1,1,0,0,1,0,1,1,0,0,1,0],[1,1,0,0,0,1,1,0,0,1,1,0,0,0,0,1,0,0,0,0],[1,1,1,0,1,1,0,1,1,1,0,0,1,0,1,1,1,0,1,0],[0,0,1,0,1,0,0,1,1,0,1,1,0,0,1,0,0,0,1,1],[1,0,0,1,0,1,0,0,1,0,1,0,0,1,0,0,1,0,0,0],[0,0,0,0,0,0,0,1,1,0,0,1,1,0,0,0,1,0,0,1],[0,0,0,1,0,1,0,1,1,1,1,0,1,1,0,1,1,0,0,0]],"gridR":[[1,0,1,0,0,0,0,1,0,0,1,1,1,1,1,1,1,1,0,1],[1,0,1,0,0,1,1,0,0,1,0,0,0,1,1,0,0,1,1,1],[1,1,1,1,1,1,1,1,0,1,0,1,0,1,0,1,0,1,0,0],[0,1,0,0,0,0,1,1,0,1,0,1,0,0,0,1,1,0,1,1],[1,1,1,1,1,1,1,1,1,0,1,0,0,1,0,1,0,1,0,1],[0,1,0,1,0,1,0,0,1,1,1,0,0,1,0,0,0,1,1,1],[1,0,1,0,1,0,1,1,1,1,0,0,0,0,1,0,0,0,0,0],[1,0,0,1,1,1,1,1,1,1,0,1,0,0,1,0,0,0,0,1],[0,0,0,1,0,1,0,0,1,1,0,0,0,1,1,1,1,0,0,1],[0,0,0,1,0,0,1,1,1,1,0,1,0,0,1,0,0,1,1,1],[0,1,0,1,1,0,0,1,0,0,0,0,0,0,1,1,1,0,0,1],[1,1,0,0,0,1,0,1,1,0,0,0,0,0,1,1,1,1,1,0],[0,0,1,0,0,0,1,0,0,0,0,1,1,0,1,1,0,0,0,1],[0,1,1,0,1,1,1,1,0,1,1,1,1,1,1,0,0,1,1,0],[0,0,0,0,1,0,1,1,1,0,1,1,0,1,0,1,1,1,0,1],[1,0,1,1,0,0,1,0,1,0,1,1,0,0,1,0,1,0,1,0],[0,1,1,0,0,1,0,1,0,0,1,0,0,1,1,1,1,0,0,1],[0,1,1,0,0,0,1,1,1,1,1,0,0,1,0,0,1,1,1,1],[0,1,1,0,0,1,0,0,0,0,0,1,0,1,1,0,1,1,0,0],[0,0,1,1,1,1,1,1,0,0,1,1,0,0,1,0,1,0,0,0]],"displayWidth":172,"displayHeight":172,"spacing":100,"style":{"gridBorderColor":"#ffffff","gridBorderWidth":"3","dotColor":"#ffffff","dotLineWidth":"1"}},"pluginResponse":[{"startTime":183398.49999989383,"rt":3229.9999999813735,"response":[{"id":0,"name":"Left","answer":50,"prompt":"Left","lastChangedTime":null},{"id":1,"name":"Right","answer":"100","prompt":"Right","lastChangedTime":185898.49999989383}],"stimulusOffTime":899.9999999068677,"trial_type":"canvas-sliders-response","trial_index":59,"time_elapsed":186520,"internal_node_id":"0.0-13.0-0.3"},{"choiceTime":712.000000057742,"choice":2,"totalTime":2715.000000083819,"image":"http://localhost:8080/ExploringSocialMetacognition/assets/image/advisor2.png","adviceTime":2003.000000026077,"trial_type":"jspsych-jas-present-advice-choice","trial_index":60,"time_elapsed":189234,"internal_node_id":"0.0-13.0-1.3"},{"startTime":189344.4999998901,"rt":1625.9999999310821,"response":[{"id":0,"name":"Left","answer":50,"prompt":"Left","lastChangedTime":null},{"id":1,"name":"Right","answer":"100","prompt":"Right","lastChangedTime":190201.49999996647}],"trial_type":"canvas-sliders-response","trial_index":61,"time_elapsed":190861,"internal_node_id":"0.0-13.0-2.3"}],"advisorAgrees":true},{"type":1,"typeName":"force","block":2,"advisorId":2,"choice":[],"answer":[1,1],"confidence":[100,100],"whichSide":1,"practice":false,"feedback":false,"warnings":["getConfidenceCategory: too few trials available to estimate confidence"],"stimulusDrawTime":[191872.49999982305],"stimulusOffTime":[899.9999999068677,null],"fixationDrawTime":[191371.49999989197],"id":20,"dotDifference":6,"grid":{"dotCountL":194,"dotCountR":206,"gridWidth":20,"gridHeight":20,"dotWidth":2,"dotHeight":2,"paddingX":6,"paddingY":6,"gridL":[[0,1,0,1,0,0,0,1,1,1,1,1,1,0,0,0,1,0,0,1],[1,0,0,0,0,1,1,0,1,1,0,1,0,1,0,0,0,1,1,0],[1,0,0,1,1,0,1,0,1,0,1,1,0,1,1,1,0,1,1,1],[0,1,1,1,1,0,0,0,1,0,0,1,1,1,1,0,1,0,0,1],[1,1,0,1,1,1,0,0,0,0,1,0,1,0,0,0,1,0,0,1],[1,0,1,1,1,1,0,1,0,1,1,1,1,1,0,0,1,0,0,0],[1,0,1,0,0,1,1,0,0,0,0,0,1,1,0,1,1,0,0,0],[1,1,0,1,1,1,1,1,0,0,1,0,1,1,0,0,0,0,0,1],[1,0,1,1,0,1,1,1,0,1,1,1,1,0,1,1,1,0,0,0],[1,0,1,0,0,0,0,0,0,0,1,0,1,0,0,0,0,0,1,0],[0,1,0,1,0,0,0,1,0,0,0,0,1,0,1,1,1,1,0,0],[1,0,0,0,0,1,1,1,0,0,1,0,1,0,0,0,1,0,1,1],[0,1,0,0,0,0,1,1,0,0,0,0,1,0,0,0,1,1,0,1],[0,0,1,1,1,0,1,1,1,0,0,1,1,1,1,0,1,1,1,0],[0,1,1,0,1,1,1,0,0,0,1,0,0,0,1,1,1,0,0,0],[0,1,1,0,0,1,0,0,1,0,0,1,1,0,1,0,1,1,0,0],[1,1,0,1,0,0,0,1,1,0,1,1,0,1,1,0,0,0,0,0],[0,0,1,0,1,0,0,0,0,1,1,0,0,0,0,0,0,1,0,1],[1,1,1,0,1,0,1,1,1,1,1,1,1,1,1,0,1,0,0,0],[1,0,0,1,0,1,0,0,0,1,0,1,1,0,1,1,1,0,0,0]],"gridR":[[1,1,1,0,1,0,0,0,1,1,0,0,0,0,0,0,0,0,1,0],[0,0,0,0,1,1,0,0,1,1,1,0,1,1,1,0,0,0,0,0],[1,0,1,1,1,0,1,1,1,1,0,1,0,1,1,0,1,1,0,0],[1,1,0,0,1,0,1,1,0,0,1,0,1,1,0,0,0,1,1,1],[1,1,1,1,1,1,1,0,0,1,1,1,1,0,0,1,0,1,1,1],[1,0,1,1,0,1,1,0,1,1,1,0,1,0,0,0,1,0,0,0],[1,0,0,1,1,1,0,1,0,1,1,0,1,1,1,1,1,0,0,0],[1,1,0,1,1,1,0,1,0,1,0,0,0,0,1,0,0,0,1,0],[0,0,1,0,0,1,0,1,0,1,1,1,0,1,0,1,0,1,0,1],[0,1,1,0,0,0,1,0,0,0,1,0,1,1,1,0,1,0,1,1],[1,1,0,1,0,1,0,1,1,1,0,1,0,0,1,0,0,0,0,0],[1,1,0,1,1,0,1,0,1,0,1,0,1,0,0,0,0,1,1,0],[0,0,0,1,1,1,1,1,1,1,0,0,1,1,0,0,1,1,1,1],[1,0,0,1,1,1,0,0,1,1,0,1,1,0,1,1,0,1,1,1],[1,0,1,0,1,0,1,1,0,1,1,0,0,0,1,1,1,0,1,0],[1,1,0,0,0,0,1,0,1,0,0,0,0,0,0,0,0,0,0,0],[0,1,1,0,0,1,0,0,1,0,1,1,1,0,0,1,0,1,0,1],[1,1,1,1,1,0,0,0,1,1,0,0,0,0,1,0,0,1,1,0],[0,0,1,1,1,0,0,1,1,0,0,0,1,1,1,1,1,0,1,0],[0,0,1,1,0,1,1,0,0,0,1,0,1,0,0,0,1,1,1,1]],"displayWidth":172,"displayHeight":172,"spacing":100,"style":{"gridBorderColor":"#ffffff","gridBorderWidth":"3","dotColor":"#ffffff","dotLineWidth":"1"}},"pluginResponse":[{"startTime":191171.49999993853,"rt":3195.9999999962747,"response":[{"id":0,"name":"Left","answer":50,"prompt":"Left","lastChangedTime":null},{"id":1,"name":"Right","answer":"100","prompt":"Right","lastChangedTime":193453.49999982864}],"stimulusOffTime":899.9999999068677,"trial_type":"canvas-sliders-response","trial_index":62,"time_elapsed":194259,"internal_node_id":"0.0-13.0-0.4"},{"choiceTime":0,"choice":2,"totalTime":2002.000000094995,"image":"http://localhost:8080/ExploringSocialMetacognition/assets/image/advisor2.png","adviceTime":2002.000000094995,"trial_type":"jspsych-jas-present-advice-choice","trial_index":63,"time_elapsed":196261,"internal_node_id":"0.0-13.0-1.4"},{"startTime":196371.49999989197,"rt":2563.0000000819564,"response":[{"id":0,"name":"Left","answer":50,"prompt":"Left","lastChangedTime":null},{"id":1,"name":"Right","answer":"100","prompt":"Right","lastChangedTime":198255.4999999702}],"trial_type":"canvas-sliders-response","trial_index":64,"time_elapsed":198825,"internal_node_id":"0.0-13.0-2.4"}],"advisorAgrees":true},{"type":2,"typeName":"choice","block":2,"advisorId":3,"choice":[2,3],"answer":[1,1],"confidence":[50,50],"whichSide":1,"practice":false,"feedback":false,"warnings":["getConfidenceCategory: too few trials available to estimate confidence","Difficulty at maximum!"],"stimulusDrawTime":[199837.49999990687],"stimulusOffTime":[902.0000000018626,null],"fixationDrawTime":[199338.49999983795],"id":21,"dotDifference":3,"grid":{"dotCountL":197,"dotCountR":203,"gridWidth":20,"gridHeight":20,"dotWidth":2,"dotHeight":2,"paddingX":6,"paddingY":6,"gridL":[[0,1,0,0,1,0,1,1,0,0,0,1,1,1,0,1,0,0,1,0],[1,0,0,1,0,1,0,0,0,1,0,1,1,0,1,0,1,1,1,0],[1,0,0,0,1,0,1,0,1,1,0,1,1,0,1,1,1,1,0,1],[0,0,1,1,1,0,0,0,1,0,1,1,1,1,1,0,1,1,0,0],[0,1,0,1,0,0,0,1,1,1,0,0,0,0,0,0,0,1,1,0],[1,1,0,0,0,0,0,1,0,0,1,1,1,1,0,1,0,0,0,0],[0,1,0,0,1,0,1,0,1,1,1,0,1,1,1,0,0,1,0,1],[0,0,0,1,0,0,1,1,1,1,0,0,1,0,0,1,1,1,0,1],[0,1,1,0,0,0,0,1,1,1,1,0,1,1,0,0,0,0,1,1],[1,0,1,0,1,1,0,0,0,1,1,1,0,1,1,1,1,0,0,1],[0,0,0,1,0,0,1,0,0,1,0,1,0,0,0,1,1,1,1,0],[1,1,0,0,1,1,1,1,1,0,0,0,1,1,1,1,0,0,0,0],[0,0,1,0,0,0,1,1,1,0,1,1,1,1,1,1,0,0,0,0],[1,1,0,1,0,0,0,1,1,0,1,0,0,1,1,0,1,0,1,1],[0,0,1,0,1,1,1,1,1,0,0,1,1,1,0,0,0,1,1,0],[1,1,0,1,0,0,1,0,1,0,0,1,0,1,0,0,1,1,0,1],[0,0,1,1,0,1,0,1,0,0,0,0,0,0,1,0,0,1,1,0],[1,0,0,1,1,0,1,0,0,1,1,0,0,0,1,1,1,1,0,1],[0,0,1,0,1,0,0,0,0,0,0,1,0,1,0,1,1,1,0,0],[1,1,0,0,0,0,1,0,1,1,0,1,1,1,1,1,1,0,0,0]],"gridR":[[1,0,1,0,0,0,0,1,1,1,0,0,0,1,0,0,0,0,1,0],[1,0,0,0,0,1,1,1,1,0,0,0,1,1,1,0,0,1,1,0],[1,1,1,0,1,0,1,1,1,1,0,0,1,0,1,0,0,1,1,0],[0,0,1,0,0,1,0,0,1,1,1,1,0,0,0,0,1,0,1,0],[1,1,0,1,0,1,1,0,0,1,1,0,0,1,0,0,0,1,0,1],[0,1,0,1,1,1,0,1,0,0,0,0,0,1,0,1,0,0,0,1],[0,1,1,1,0,1,1,0,0,1,1,1,1,1,0,1,0,1,1,0],[1,0,0,1,1,0,0,0,1,0,1,0,1,0,0,1,1,0,1,1],[1,1,0,0,1,0,1,0,1,1,1,1,1,0,0,0,1,1,0,1],[1,0,0,0,1,0,1,0,1,0,1,1,0,0,1,1,1,1,1,0],[1,1,1,0,1,1,1,1,1,0,0,1,0,0,0,1,0,0,1,0],[1,0,1,1,0,0,0,1,1,0,1,0,0,0,1,1,1,1,1,0],[0,0,1,1,0,0,1,0,1,0,1,0,0,0,1,1,1,0,0,1],[0,0,1,1,0,0,0,0,1,0,1,0,0,1,1,0,0,1,0,1],[0,0,1,1,1,1,0,0,1,1,1,0,1,0,0,0,0,1,1,1],[0,0,0,0,1,1,0,1,1,1,1,0,0,1,1,0,0,0,1,0],[0,1,1,1,1,0,0,0,1,1,0,1,0,1,1,0,1,0,1,1],[1,1,1,0,0,1,1,1,1,0,1,1,1,1,1,1,0,0,0,1],[0,0,1,0,0,1,0,1,0,1,1,0,1,0,1,0,1,0,1,1],[1,1,1,0,1,1,1,0,0,0,0,0,0,0,0,1,0,0,0,0]],"displayWidth":172,"displayHeight":172,"spacing":100,"style":{"gridBorderColor":"#ffffff","gridBorderWidth":"3","dotColor":"#ffffff","dotLineWidth":"1"}},"pluginResponse":[{"startTime":199135.49999985844,"rt":2752.000000094995,"response":[{"id":0,"name":"Left","answer":50,"prompt":"Left","lastChangedTime":null},{"id":1,"name":"Right","answer":"50","prompt":"Right","lastChangedTime":201201.49999996647}],"stimulusOffTime":902.0000000018626,"trial_type":"canvas-sliders-response","trial_index":65,"time_elapsed":201779,"internal_node_id":"0.0-13.0-0.5"},{"choiceTime":857.0000000763685,"choice":3,"totalTime":2858.9999999385327,"image":"http://localhost:8080/ExploringSocialMetacognition/assets/image/advisor3.png","adviceTime":2001.9999998621643,"trial_type":"jspsych-jas-present-advice-choice","trial_index":66,"time_elapsed":204638,"internal_node_id":"0.0-13.0-1.5"},{"startTime":204748.49999998696,"rt":2484.999999869615,"response":[{"id":0,"name":"Left","answer":50,"prompt":"Left","lastChangedTime":null},{"id":1,"name":"Right","answer":"50","prompt":"Right","lastChangedTime":206514.4999998156}],"trial_type":"canvas-sliders-response","trial_index":67,"time_elapsed":207124,"internal_node_id":"0.0-13.0-2.5"}],"advisorAgrees":true},{"type":1,"typeName":"force","block":2,"advisorId":3,"choice":[],"answer":[1,1],"confidence":[97,100],"whichSide":1,"practice":false,"feedback":false,"warnings":["getConfidenceCategory: too few trials available to estimate confidence","Difficulty at maximum!"],"stimulusDrawTime":[208134.49999992736],"stimulusOffTime":[899.9999999068677,null],"fixationDrawTime":[207634.49999992736],"id":22,"dotDifference":1,"grid":{"dotCountL":199,"dotCountR":201,"gridWidth":20,"gridHeight":20,"dotWidth":2,"dotHeight":2,"paddingX":6,"paddingY":6,"gridL":[[0,0,1,1,0,0,1,0,0,1,0,0,0,1,0,1,0,0,0,0],[1,1,1,0,1,1,0,0,0,1,0,0,0,0,1,0,1,0,1,0],[1,0,1,1,0,0,1,0,1,1,0,0,0,0,1,1,0,0,1,0],[0,1,1,1,0,1,0,1,1,0,1,0,1,0,0,0,0,0,0,0],[1,0,0,1,0,1,1,1,1,0,0,1,0,0,0,0,1,1,0,0],[0,1,0,1,0,1,0,0,1,0,0,1,1,0,1,0,1,1,1,1],[0,0,1,0,0,0,0,1,1,0,1,1,1,0,0,0,0,0,0,1],[1,0,1,0,0,1,0,0,0,1,1,0,1,0,1,0,1,0,1,1],[1,0,1,1,0,0,0,1,0,0,1,0,0,0,0,1,1,1,1,1],[0,0,0,1,0,0,1,1,1,0,1,0,1,1,0,0,0,0,1,1],[0,0,0,0,1,1,0,0,1,1,1,0,0,1,1,0,1,0,0,1],[0,0,1,0,1,1,0,1,1,0,0,0,1,0,1,1,0,1,1,0],[0,1,0,0,1,1,0,1,1,0,1,1,1,1,0,0,1,1,0,1],[0,1,1,1,1,1,0,1,1,0,1,1,1,1,0,0,1,1,1,0],[1,1,0,0,0,1,1,0,0,0,0,0,1,0,1,0,0,1,0,0],[1,0,0,0,1,1,0,0,0,1,0,1,0,1,1,1,1,1,0,1],[0,1,1,1,1,1,1,1,0,0,1,1,1,1,1,1,1,0,0,0],[0,1,1,0,1,0,0,0,0,0,1,1,1,1,1,1,0,1,1,1],[1,1,1,1,0,1,0,1,0,1,0,1,1,1,0,1,1,1,0,0],[1,0,0,0,0,1,0,1,0,0,0,0,0,1,0,1,1,1,1,1]],"gridR":[[1,1,1,1,1,1,1,1,1,0,0,0,0,0,1,0,1,0,1,1],[1,0,0,1,1,0,1,0,1,1,1,0,0,0,1,0,1,1,1,0],[0,1,1,0,0,1,1,0,0,1,0,0,0,1,0,1,1,1,1,1],[1,1,1,0,1,1,1,1,0,0,0,0,0,1,0,1,1,1,0,1],[1,0,1,0,0,0,0,0,1,0,0,1,0,1,1,0,1,0,1,1],[1,0,0,1,0,1,1,0,1,0,0,0,1,1,1,0,1,1,0,1],[1,1,0,0,1,1,0,0,1,1,1,1,1,0,1,1,0,0,0,1],[1,0,0,1,1,1,0,0,0,0,0,1,0,0,0,0,1,1,1,0],[0,0,0,1,0,1,0,1,1,0,0,0,1,0,1,0,0,1,1,1],[1,0,1,1,1,1,0,1,0,0,0,1,0,1,1,0,0,1,1,1],[0,1,0,0,0,1,0,0,1,0,0,1,1,1,1,0,0,0,1,0],[0,1,1,0,0,1,1,0,1,1,1,0,1,0,1,1,1,1,1,0],[1,1,0,0,0,0,1,0,1,1,0,1,1,0,1,0,1,1,0,1],[1,1,0,1,0,1,0,0,0,1,0,0,1,0,1,0,1,1,0,1],[0,0,0,0,0,0,0,1,0,1,0,0,1,0,1,1,1,0,0,1],[0,0,1,1,1,0,0,1,1,1,1,0,0,0,0,0,0,0,0,1],[0,0,0,1,0,1,0,1,1,0,0,0,1,0,0,0,0,1,1,0],[1,1,1,1,1,0,0,1,1,1,1,1,0,1,0,0,0,0,0,1],[0,1,0,0,0,1,0,0,0,1,0,1,0,0,0,1,1,1,1,0],[0,0,1,0,1,1,1,1,0,0,0,1,1,0,1,0,1,0,0,0]],"displayWidth":172,"displayHeight":172,"spacing":100,"style":{"gridBorderColor":"#ffffff","gridBorderWidth":"3","dotColor":"#ffffff","dotLineWidth":"1"}},"pluginResponse":[{"startTime":207434.49999997392,"rt":2945.9999999962747,"response":[{"id":0,"name":"Left","answer":50,"prompt":"Left","lastChangedTime":null},{"id":1,"name":"Right","answer":"97","prompt":"Right","lastChangedTime":209922.49999986961}],"stimulusOffTime":899.9999999068677,"trial_type":"canvas-sliders-response","trial_index":68,"time_elapsed":210271,"internal_node_id":"0.0-13.0-0.6"},{"choiceTime":0,"choice":3,"totalTime":2002.000000094995,"image":"http://localhost:8080/ExploringSocialMetacognition/assets/image/advisor3.png","adviceTime":2002.000000094995,"trial_type":"jspsych-jas-present-advice-choice","trial_index":69,"time_elapsed":212274,"internal_node_id":"0.0-13.0-1.6"},{"startTime":212384.49999992736,"rt":2690.999999875203,"response":[{"id":0,"name":"Left","answer":50,"prompt":"Left","lastChangedTime":null},{"id":1,"name":"Right","answer":"100","prompt":"Right","lastChangedTime":214482.4999999255}],"trial_type":"canvas-sliders-response","trial_index":70,"time_elapsed":214966,"internal_node_id":"0.0-13.0-2.6"}],"advisorAgrees":true},{"type":2,"typeName":"choice","block":2,"advisorId":2,"choice":[3,2],"answer":[0,0],"confidence":[88,100],"whichSide":0,"practice":false,"feedback":false,"warnings":["getConfidenceCategory: too few trials available to estimate confidence","Difficulty at maximum!"],"stimulusDrawTime":[215976.49999987334],"stimulusOffTime":[899.9999999068677,null],"fixationDrawTime":[215477.49999980442],"id":23,"dotDifference":1,"grid":{"dotCountL":201,"dotCountR":199,"gridWidth":20,"gridHeight":20,"dotWidth":2,"dotHeight":2,"paddingX":6,"paddingY":6,"gridL":[[1,0,1,1,0,0,1,1,0,0,1,1,0,1,0,0,1,1,0,1],[0,0,0,0,1,0,1,0,0,1,0,0,0,1,1,0,0,1,1,0],[0,1,0,0,1,1,1,1,1,0,1,0,0,0,0,1,0,0,0,1],[1,1,0,0,1,1,1,1,0,0,0,1,1,1,0,1,0,0,0,1],[0,1,1,0,1,0,1,1,0,0,1,1,0,1,0,1,1,0,1,0],[1,1,0,0,1,1,0,0,0,1,1,0,1,0,1,1,1,0,0,1],[0,0,1,1,0,0,1,0,0,0,0,1,1,0,1,0,1,1,1,1],[0,0,1,0,1,1,0,1,1,0,1,0,0,0,0,0,1,0,0,1],[1,0,0,0,1,0,1,0,0,1,0,1,0,1,0,1,0,1,0,0],[1,1,1,1,1,0,1,0,1,1,0,0,1,0,0,1,1,0,0,1],[0,0,1,1,0,1,1,0,0,0,1,1,1,0,1,1,1,1,0,0],[0,1,0,0,1,1,0,1,0,1,0,1,0,0,1,1,1,1,0,1],[1,1,0,1,0,0,0,0,1,1,0,0,1,1,0,0,1,0,1,0],[1,0,1,0,0,1,1,1,0,0,0,1,1,0,0,0,0,1,1,0],[0,0,1,0,0,0,0,0,0,1,0,0,1,0,0,1,0,0,1,1],[0,0,0,1,1,0,0,1,1,0,1,1,1,0,0,0,0,0,0,0],[0,1,1,1,1,0,1,0,1,1,1,1,1,1,0,1,0,1,1,1],[1,1,0,0,1,0,0,1,0,1,1,1,1,0,1,0,0,0,1,1],[0,1,1,1,1,0,0,1,0,1,1,0,1,0,1,1,0,1,0,0],[0,1,0,1,1,1,1,1,0,1,0,1,1,0,1,1,1,1,0,0]],"gridR":[[0,1,1,0,1,1,1,0,1,1,1,0,0,1,1,0,1,1,0,0],[1,0,0,1,0,1,1,1,1,0,0,0,0,0,0,0,1,1,1,0],[0,0,0,0,1,1,1,1,1,0,1,1,0,0,1,0,0,0,0,0],[1,0,1,1,0,0,0,0,0,1,0,0,0,0,1,1,0,0,0,1],[1,1,0,1,0,0,1,1,1,1,0,0,1,0,1,0,1,0,0,0],[0,1,0,1,0,1,0,1,0,1,0,0,0,0,0,1,0,0,0,0],[1,0,1,1,1,1,0,0,0,0,1,1,1,0,0,1,1,1,1,1],[1,0,1,0,0,1,1,1,1,0,1,1,1,0,1,1,1,0,0,0],[0,1,1,0,1,1,1,0,1,1,0,0,1,0,0,0,0,1,0,1],[0,1,0,1,1,0,0,0,1,0,1,1,1,0,0,0,1,1,1,1],[1,0,1,0,1,1,1,0,0,0,1,1,0,0,1,0,1,1,1,0],[1,0,1,0,1,1,0,1,0,1,0,0,1,0,1,1,0,0,1,0],[0,0,1,1,1,1,0,0,0,1,0,0,0,0,0,1,0,0,1,0],[0,1,1,0,1,0,1,1,1,1,0,1,1,1,1,1,1,1,1,0],[1,0,1,1,1,0,1,0,1,1,1,0,0,0,1,1,0,0,0,0],[1,1,1,1,0,1,0,1,0,0,1,0,0,1,0,0,0,0,1,1],[0,0,0,1,0,1,1,0,1,1,0,0,1,1,1,1,0,0,0,0],[1,0,1,1,0,0,0,0,0,0,1,1,1,1,0,1,1,1,1,0],[1,1,0,1,1,1,1,0,0,0,0,1,0,0,1,1,1,0,0,1],[0,0,1,0,1,0,0,0,1,1,1,0,0,0,1,0,0,0,0,1]],"displayWidth":172,"displayHeight":172,"spacing":100,"style":{"gridBorderColor":"#ffffff","gridBorderWidth":"3","dotColor":"#ffffff","dotLineWidth":"1"}},"pluginResponse":[{"startTime":215276.4999999199,"rt":2274.9999999068677,"response":[{"id":0,"name":"Left","answer":88,"prompt":"Left","lastChangedTime":216959.4999998808},{"id":1,"name":"Right","answer":"50","prompt":"Right","lastChangedTime":null}],"stimulusOffTime":899.9999999068677,"trial_type":"canvas-sliders-response","trial_index":71,"time_elapsed":217442,"internal_node_id":"0.0-13.0-0.7"},{"choiceTime":976.0000000242144,"choice":2,"totalTime":2978.999999817461,"image":"http://localhost:8080/ExploringSocialMetacognition/assets/image/advisor2.png","adviceTime":2002.9999997932464,"trial_type":"jspsych-jas-present-advice-choice","trial_index":72,"time_elapsed":220422,"internal_node_id":"0.0-13.0-1.7"},{"startTime":220532.49999997206,"rt":2138.9999999664724,"response":[{"id":0,"name":"Left","answer":100,"prompt":"Left","lastChangedTime":221649.4999998249},{"id":1,"name":"Right","answer":"50","prompt":"Right","lastChangedTime":null}],"trial_type":"canvas-sliders-response","trial_index":73,"time_elapsed":222562,"internal_node_id":"0.0-13.0-2.7"}],"advisorAgrees":true},{"type":2,"typeName":"choice","block":2,"advisorId":3,"choice":[2,3],"answer":[1,1],"confidence":[98,100],"whichSide":1,"practice":false,"feedback":false,"warnings":["getConfidenceCategory: too few trials available to estimate confidence","Difficulty at maximum!"],"stimulusDrawTime":[223572.5000000093],"stimulusOffTime":[900.0000001396984,null],"fixationDrawTime":[223072.5000000093],"id":24,"dotDifference":1,"grid":{"dotCountL":199,"dotCountR":201,"gridWidth":20,"gridHeight":20,"dotWidth":2,"dotHeight":2,"paddingX":6,"paddingY":6,"gridL":[[1,1,0,0,1,0,0,0,1,0,1,0,0,0,1,0,0,0,1,1],[1,1,0,0,1,1,1,1,1,0,1,1,1,1,1,1,0,1,0,0],[0,1,1,1,1,0,0,1,1,0,1,0,0,1,0,0,1,0,0,0],[1,0,0,1,0,0,1,1,0,0,0,1,0,1,0,0,0,0,1,0],[0,0,0,0,0,0,1,0,0,1,1,0,1,0,0,1,1,0,1,1],[0,0,0,0,0,1,0,0,0,0,0,1,0,0,1,1,0,1,1,0],[0,0,1,1,1,1,1,0,0,0,1,1,1,1,0,1,0,1,0,1],[1,0,0,1,1,1,0,1,1,1,1,1,1,0,0,1,0,0,1,0],[0,1,0,1,1,1,0,1,1,1,1,1,1,1,0,1,0,0,0,0],[1,0,0,1,1,0,0,1,1,0,0,0,1,0,1,1,1,0,1,0],[0,0,1,1,1,1,1,0,1,0,0,1,0,0,0,1,0,0,0,0],[0,1,1,1,1,1,0,1,0,1,0,1,1,1,1,1,0,0,0,0],[0,0,0,0,0,0,1,1,0,0,1,0,0,0,1,1,0,0,1,1],[1,1,1,1,0,0,0,1,0,0,1,0,1,1,1,0,0,1,1,1],[0,0,0,0,1,1,1,1,0,1,1,0,1,1,1,0,1,0,0,0],[0,0,1,0,1,1,0,1,1,1,1,0,1,1,0,1,0,0,0,0],[1,1,0,0,1,1,0,1,0,0,1,1,1,0,1,0,1,0,1,1],[1,1,1,1,1,1,0,1,1,0,1,0,1,1,0,0,0,1,0,0],[0,1,0,1,0,1,1,1,1,1,0,1,1,0,0,0,0,1,0,1],[0,1,1,0,0,1,0,0,0,0,1,0,0,1,0,0,0,0,1,1]],"gridR":[[0,0,0,1,0,1,1,1,0,0,1,0,1,1,1,0,0,1,1,0],[1,0,0,0,1,0,1,1,0,1,1,1,1,1,1,1,0,0,1,1],[1,1,1,1,0,0,1,0,0,0,0,0,1,1,0,0,1,1,0,1],[0,0,1,0,0,0,1,1,1,1,1,1,1,1,1,0,1,1,1,0],[0,0,1,1,1,0,1,0,0,0,0,0,1,1,1,1,1,0,0,1],[1,0,0,0,0,0,1,0,1,0,0,1,1,0,1,1,1,1,0,0],[0,1,0,1,0,1,1,1,1,0,0,1,0,1,0,0,1,1,1,1],[1,1,0,1,1,0,0,1,0,0,1,0,0,0,1,1,0,0,0,1],[1,0,1,0,0,0,0,0,0,1,0,0,1,1,0,1,0,1,1,0],[1,1,0,1,1,0,0,1,1,1,1,0,1,0,0,0,0,1,1,0],[1,0,1,0,0,1,0,0,1,0,1,0,0,0,0,0,0,0,1,0],[1,1,0,0,0,1,1,0,0,0,1,0,0,1,1,0,1,1,1,1],[0,1,1,1,1,1,0,1,0,0,1,1,0,1,0,0,1,0,0,1],[1,1,1,0,1,0,0,1,1,1,0,1,0,0,1,1,0,0,0,0],[1,0,0,1,0,0,1,0,1,1,1,0,1,1,0,0,1,0,0,0],[1,0,1,1,0,0,1,1,0,0,1,0,0,1,0,1,0,1,0,0],[1,1,1,0,1,0,1,1,0,0,0,0,0,0,0,1,0,1,0,1],[1,1,0,0,1,0,1,1,1,0,0,0,0,1,1,0,1,0,1,1],[1,0,1,1,0,1,0,1,1,1,1,0,0,0,0,1,1,0,0,0],[1,0,0,1,0,0,1,0,0,1,1,1,1,1,0,1,0,0,0,1]],"displayWidth":172,"displayHeight":172,"spacing":100,"style":{"gridBorderColor":"#ffffff","gridBorderWidth":"3","dotColor":"#ffffff","dotLineWidth":"1"}},"pluginResponse":[{"startTime":222872.49999982305,"rt":4077.000000048429,"response":[{"id":0,"name":"Left","answer":50,"prompt":"Left","lastChangedTime":null},{"id":1,"name":"Right","answer":"98","prompt":"Right","lastChangedTime":224894.49999993667}],"stimulusOffTime":900.0000001396984,"trial_type":"canvas-sliders-response","trial_index":74,"time_elapsed":226841,"internal_node_id":"0.0-13.0-0.8"},{"choiceTime":975.0000000931323,"choice":3,"totalTime":2977.000000188127,"image":"http://localhost:8080/ExploringSocialMetacognition/assets/image/advisor3.png","adviceTime":2002.000000094995,"trial_type":"jspsych-jas-present-advice-choice","trial_index":75,"time_elapsed":229818,"internal_node_id":"0.0-13.0-1.8"},{"startTime":229928.49999992177,"rt":2158.999999985099,"response":[{"id":0,"name":"Left","answer":50,"prompt":"Left","lastChangedTime":null},{"id":1,"name":"Right","answer":"100","prompt":"Right","lastChangedTime":231413.49999979138}],"trial_type":"canvas-sliders-response","trial_index":76,"time_elapsed":231979,"internal_node_id":"0.0-13.0-2.8"}],"advisorAgrees":true},{"type":1,"typeName":"force","block":2,"advisorId":3,"choice":[],"answer":[0,0],"confidence":[100,100],"whichSide":0,"practice":false,"feedback":false,"warnings":["getConfidenceCategory: too few trials available to estimate confidence","Difficulty at maximum!"],"stimulusDrawTime":[232989.49999990873],"stimulusOffTime":[899.9999999068677,null],"fixationDrawTime":[232489.49999990873],"id":25,"dotDifference":1,"grid":{"dotCountL":201,"dotCountR":199,"gridWidth":20,"gridHeight":20,"dotWidth":2,"dotHeight":2,"paddingX":6,"paddingY":6,"gridL":[[1,1,0,1,0,0,0,0,1,0,1,1,0,0,1,0,0,1,1,1],[1,0,1,1,1,0,1,1,1,0,1,1,1,0,0,0,1,0,1,0],[0,0,1,1,0,1,0,1,1,0,1,0,0,0,0,0,0,0,1,0],[1,1,1,0,0,0,0,1,1,0,0,1,0,1,0,0,0,0,0,0],[1,1,0,0,0,0,0,0,0,0,0,0,1,1,1,1,1,1,0,1],[1,1,1,0,0,0,1,0,0,1,1,1,0,1,1,0,0,0,1,0],[1,1,1,1,1,1,0,1,0,0,0,0,1,0,0,1,1,0,0,0],[1,1,0,1,1,0,1,1,0,0,1,1,0,1,0,1,1,0,1,1],[0,1,1,1,0,1,1,1,0,1,0,1,0,1,1,1,0,1,0,1],[0,1,1,1,1,1,1,1,1,0,0,1,1,1,0,0,0,1,0,0],[0,1,1,1,0,0,0,1,0,0,0,0,0,1,1,0,0,0,0,1],[1,1,0,0,0,0,1,0,0,1,1,1,0,0,0,0,1,1,1,1],[1,1,1,0,1,0,1,1,0,0,1,0,1,1,1,1,0,1,0,1],[1,1,1,1,1,0,0,0,1,1,1,0,1,1,0,0,0,0,0,1],[0,0,0,1,1,0,1,1,1,0,0,1,1,0,0,1,0,1,1,0],[0,1,1,0,0,1,1,0,1,0,1,0,0,1,1,0,1,1,1,0],[0,0,1,0,0,0,1,1,0,0,0,0,1,0,0,0,1,1,0,1],[0,0,1,1,0,1,1,1,0,0,1,1,1,1,0,0,1,0,0,0],[1,1,0,0,0,1,1,0,1,0,1,1,1,0,0,1,1,0,1,0],[0,0,1,0,0,1,1,0,1,0,0,1,0,0,1,0,1,0,1,0]],"gridR":[[0,0,1,1,1,1,1,1,1,0,1,0,0,0,0,1,0,1,0,0],[1,1,1,0,1,1,0,1,1,1,0,0,0,1,0,1,1,0,0,0],[0,1,0,0,1,1,0,0,0,1,1,1,0,1,1,0,1,0,1,0],[0,0,1,0,0,1,1,0,0,1,1,1,1,1,1,0,1,0,0,1],[1,0,0,1,0,0,0,1,1,0,1,1,0,0,1,1,1,1,0,1],[0,1,0,1,0,1,1,1,0,1,0,0,1,0,1,1,0,1,0,1],[1,0,0,1,0,1,0,0,0,0,0,1,1,0,0,0,0,1,1,1],[1,1,1,0,0,0,0,0,0,1,0,0,0,1,1,1,1,0,0,0],[0,1,0,1,1,0,0,1,0,0,1,1,0,1,1,0,0,0,0,0],[1,0,0,1,1,0,1,0,1,0,1,1,1,1,1,0,0,1,0,1],[1,1,1,1,0,1,1,1,1,0,0,0,0,0,1,0,1,1,0,1],[0,0,0,1,1,0,1,1,1,0,1,0,1,1,1,0,0,1,1,0],[0,0,1,0,1,1,0,1,1,1,1,0,1,0,1,0,1,1,1,1],[0,1,0,0,0,0,0,0,1,0,1,0,0,0,0,1,0,0,0,0],[0,1,1,0,0,0,0,1,0,1,1,1,1,1,0,1,1,0,0,1],[0,1,0,1,0,1,0,0,1,0,1,0,1,1,1,0,0,1,1,1],[1,0,0,0,0,0,1,1,0,0,1,0,1,1,1,0,0,0,1,1],[1,0,1,0,0,0,0,1,0,0,0,1,0,0,1,1,1,0,0,0],[1,1,1,1,0,1,1,0,0,1,1,0,0,0,1,0,0,0,1,0],[1,0,1,0,0,1,1,1,0,1,1,0,0,1,0,0,1,0,1,1]],"displayWidth":172,"displayHeight":172,"spacing":100,"style":{"gridBorderColor":"#ffffff","gridBorderWidth":"3","dotColor":"#ffffff","dotLineWidth":"1"}},"pluginResponse":[{"startTime":232289.4999999553,"rt":4243.000000016764,"response":[{"id":0,"name":"Left","answer":100,"prompt":"Left","lastChangedTime":235614.49999990873},{"id":1,"name":"Right","answer":"50","prompt":"Right","lastChangedTime":null}],"stimulusOffTime":899.9999999068677,"trial_type":"canvas-sliders-response","trial_index":77,"time_elapsed":236423,"internal_node_id":"0.0-13.0-0.9"},{"choiceTime":0.9999999310821295,"choice":3,"totalTime":2003.000000026077,"image":"http://localhost:8080/ExploringSocialMetacognition/assets/image/advisor3.png","adviceTime":2002.000000094995,"trial_type":"jspsych-jas-present-advice-choice","trial_index":78,"time_elapsed":238427,"internal_node_id":"0.0-13.0-1.9"},{"startTime":238536.49999992922,"rt":2016.0000000614673,"response":[{"id":0,"name":"Left","answer":100,"prompt":"Left","lastChangedTime":239846.4999999851},{"id":1,"name":"Right","answer":"50","prompt":"Right","lastChangedTime":null}],"trial_type":"canvas-sliders-response","trial_index":79,"time_elapsed":240444,"internal_node_id":"0.0-13.0-2.9"}],"advisorAgrees":false},{"type":1,"typeName":"force","block":2,"advisorId":2,"choice":[],"answer":[0,0],"confidence":[100,100],"whichSide":0,"practice":false,"feedback":false,"warnings":["getConfidenceCategory: too few trials available to estimate confidence","Difficulty at maximum!"],"stimulusDrawTime":[241454.49999999255],"stimulusOffTime":[900.0000001396984,null],"fixationDrawTime":[240954.49999999255],"id":26,"dotDifference":1,"grid":{"dotCountL":201,"dotCountR":199,"gridWidth":20,"gridHeight":20,"dotWidth":2,"dotHeight":2,"paddingX":6,"paddingY":6,"gridL":[[1,0,1,1,1,0,0,1,1,0,1,0,1,0,1,0,1,1,0,1],[0,0,0,1,1,1,0,1,0,0,1,0,1,0,1,1,0,1,1,1],[0,1,0,0,1,1,1,1,1,0,1,0,0,1,0,1,0,1,1,1],[0,1,1,0,0,0,1,1,0,0,0,0,1,0,0,1,1,1,1,1],[1,1,0,1,1,1,0,0,1,1,0,1,0,1,0,0,1,1,0,0],[0,1,1,1,1,1,0,1,0,0,1,1,0,1,0,1,0,0,0,0],[0,0,0,1,1,0,0,1,1,0,0,1,1,1,1,1,0,0,0,0],[1,0,0,1,1,1,0,0,0,1,0,0,1,1,0,0,1,1,0,1],[0,1,0,0,0,1,0,1,1,0,1,0,1,1,0,0,1,1,0,0],[1,1,1,1,0,1,1,1,0,0,1,0,0,0,1,1,1,0,0,1],[0,1,0,0,1,1,0,1,0,0,1,1,0,1,0,1,0,0,0,1],[0,0,1,0,1,1,0,1,0,0,0,1,0,0,1,0,1,0,1,1],[0,1,1,1,1,0,1,1,1,1,0,0,1,0,0,1,0,1,1,1],[0,1,1,1,0,0,1,0,1,0,0,1,0,1,0,1,0,0,0,1],[1,0,0,0,1,0,0,0,0,0,0,0,0,1,0,0,1,0,0,1],[0,0,0,0,0,1,1,0,1,0,0,0,0,0,1,0,0,0,1,0],[1,1,1,1,1,0,1,1,1,1,0,0,1,1,0,1,0,0,1,0],[0,0,1,1,1,0,0,1,0,1,1,1,1,0,0,0,1,0,1,1],[0,1,0,1,1,0,1,1,0,1,0,0,0,0,1,1,0,0,0,0],[0,1,1,0,0,1,0,0,1,1,1,1,1,1,0,1,1,1,0,1]],"gridR":[[1,0,0,0,1,0,1,0,1,1,0,1,0,0,1,0,1,0,1,0],[1,1,1,0,0,0,0,0,1,1,1,1,1,1,1,1,1,0,1,1],[0,0,0,1,0,0,0,0,1,0,1,0,0,0,1,0,0,0,1,1],[1,0,1,1,1,1,1,1,0,0,0,1,0,1,1,1,0,0,1,1],[1,0,1,1,1,0,1,1,1,1,0,0,1,1,1,1,0,1,0,0],[1,1,1,1,0,1,1,0,0,0,0,0,1,0,0,1,1,1,0,0],[0,1,0,0,1,0,0,0,1,1,0,1,0,1,0,0,1,1,0,0],[1,0,1,1,0,0,1,1,0,1,1,0,0,0,1,1,0,0,1,0],[0,0,0,0,0,0,0,0,1,0,1,0,0,1,0,1,1,0,0,1],[1,1,1,1,0,1,1,1,1,0,1,0,1,1,1,0,0,1,1,1],[1,1,1,0,0,0,0,0,1,1,0,1,0,1,0,1,1,0,0,0],[0,0,0,1,1,0,0,1,1,0,0,1,1,1,1,1,1,0,0,1],[0,0,1,1,0,0,1,0,1,0,0,0,1,0,0,0,1,1,0,0],[0,1,0,0,1,0,1,1,0,1,1,0,0,1,1,1,1,0,1,0],[1,0,0,1,0,0,1,1,1,0,1,1,1,1,1,0,0,1,1,0],[1,1,0,0,0,1,1,1,0,1,1,1,0,0,0,0,1,0,1,1],[1,0,0,0,1,1,1,0,0,1,1,1,1,1,1,0,0,1,1,0],[1,1,1,0,0,0,1,1,0,0,0,0,0,1,0,1,1,0,0,0],[1,0,0,0,0,0,1,1,1,0,1,0,0,0,0,0,1,1,0,0],[0,0,0,0,1,1,0,0,0,0,1,1,0,0,0,1,0,1,1,0]],"displayWidth":172,"displayHeight":172,"spacing":100,"style":{"gridBorderColor":"#ffffff","gridBorderWidth":"3","dotColor":"#ffffff","dotLineWidth":"1"}},"pluginResponse":[{"startTime":240754.49999980628,"rt":2877.000000094995,"response":[{"id":0,"name":"Left","answer":100,"prompt":"Left","lastChangedTime":242956.4999998547},{"id":1,"name":"Right","answer":"50","prompt":"Right","lastChangedTime":null}],"stimulusOffTime":900.0000001396984,"trial_type":"canvas-sliders-response","trial_index":80,"time_elapsed":243522,"internal_node_id":"0.0-13.0-0.10"},{"choiceTime":0,"choice":2,"totalTime":2002.000000094995,"image":"http://localhost:8080/ExploringSocialMetacognition/assets/image/advisor2.png","adviceTime":2002.000000094995,"trial_type":"jspsych-jas-present-advice-choice","trial_index":81,"time_elapsed":245525,"internal_node_id":"0.0-13.0-1.10"},{"startTime":245634.49999992736,"rt":2433.9999998919666,"response":[{"id":0,"name":"Left","answer":100,"prompt":"Left","lastChangedTime":247540.49999988638},{"id":1,"name":"Right","answer":"50","prompt":"Right","lastChangedTime":null}],"trial_type":"canvas-sliders-response","trial_index":82,"time_elapsed":247959,"internal_node_id":"0.0-13.0-2.10"}],"advisorAgrees":true},{"type":2,"typeName":"choice","block":2,"advisorId":2,"choice":[3,2],"answer":[0,0],"confidence":[100,100],"whichSide":1,"practice":false,"feedback":false,"warnings":["getConfidenceCategory: too few trials available to estimate confidence"],"stimulusDrawTime":[248969.4999998901],"stimulusOffTime":[899.9999999068677,null],"fixationDrawTime":[248469.4999998901],"id":27,"dotDifference":1,"grid":{"dotCountL":199,"dotCountR":201,"gridWidth":20,"gridHeight":20,"dotWidth":2,"dotHeight":2,"paddingX":6,"paddingY":6,"gridL":[[1,0,1,0,1,0,1,0,1,1,1,1,1,0,1,0,1,1,0,0],[1,0,1,1,1,1,0,1,0,1,0,0,1,1,0,0,1,1,1,0],[0,0,0,0,1,0,0,1,0,1,0,0,1,0,0,0,0,0,1,1],[1,1,0,1,1,0,1,0,1,1,0,0,1,1,0,1,0,1,0,0],[1,0,0,0,0,1,1,0,0,0,1,1,0,0,0,1,0,0,0,1],[1,1,0,0,1,1,0,1,1,0,1,1,0,1,1,0,0,1,1,1],[1,1,1,1,0,0,1,1,1,1,0,0,0,0,0,0,0,1,1,1],[0,1,1,0,1,0,0,1,0,0,0,1,0,1,0,0,1,0,1,0],[0,1,1,1,0,1,0,1,0,0,1,0,1,0,0,1,1,0,1,0],[1,1,1,1,1,0,1,0,1,0,1,0,1,1,0,0,0,1,0,1],[0,1,0,0,1,1,1,0,1,1,0,1,1,1,1,1,0,1,0,0],[0,0,1,0,0,1,1,0,1,0,0,1,0,1,1,0,0,0,1,1],[0,1,0,0,1,0,1,1,0,0,1,1,1,1,1,0,1,0,0,1],[1,0,0,1,0,0,1,0,1,1,1,0,0,1,1,0,1,0,0,1],[1,0,1,0,0,0,0,0,1,0,1,0,0,1,0,1,1,1,0,0],[0,0,1,1,1,1,0,0,1,0,0,0,1,1,1,0,1,1,1,1],[1,1,0,0,1,1,0,0,0,0,1,1,0,0,0,0,0,1,0,0],[0,1,1,0,1,1,1,0,0,0,0,1,1,1,1,1,0,1,0,0],[0,1,0,1,0,0,0,1,1,1,0,1,1,0,0,0,1,1,1,0],[0,0,1,0,1,0,0,0,0,0,0,1,1,0,0,0,1,0,1,1]],"gridR":[[0,1,0,0,0,0,1,1,0,1,0,1,1,1,1,1,0,1,0,1],[0,1,1,0,1,1,0,1,0,0,1,1,1,1,0,0,0,0,0,0],[0,1,0,0,1,1,1,0,0,1,1,1,1,1,1,1,0,1,1,1],[1,0,0,1,1,1,1,1,0,1,0,1,1,1,1,1,0,1,0,0],[1,0,0,0,1,0,1,1,0,1,0,1,1,0,0,0,1,0,0,0],[1,1,0,1,1,1,0,1,1,1,0,1,0,1,0,0,1,1,1,0],[0,0,1,1,1,0,1,1,0,0,1,0,0,0,1,1,1,0,1,1],[1,0,0,0,1,1,0,1,1,1,1,1,1,0,0,1,1,1,0,0],[0,0,0,0,0,1,0,0,0,1,1,1,0,1,1,0,1,0,1,1],[0,1,1,0,1,0,1,1,0,0,0,0,0,1,1,1,0,0,1,1],[0,0,1,1,0,0,0,1,1,1,0,0,0,1,1,1,0,0,0,1],[0,1,1,0,1,1,1,0,0,1,0,0,0,1,1,1,1,0,1,1],[0,0,1,1,1,0,1,1,0,1,1,0,1,0,0,1,0,0,1,0],[1,1,0,0,0,0,0,1,1,1,0,0,0,1,1,0,1,0,1,1],[0,1,0,1,1,0,0,0,0,0,1,1,0,0,1,0,0,0,0,0],[0,1,0,1,0,0,0,1,0,1,1,1,1,0,0,1,0,0,0,0],[0,0,1,0,0,1,1,1,0,0,0,0,1,1,1,0,1,0,1,1],[1,0,0,1,0,0,1,1,0,0,0,1,1,0,1,0,0,0,0,0],[0,1,1,0,1,0,0,0,0,0,1,1,1,1,0,0,1,1,1,0],[0,0,1,0,0,0,1,0,1,1,0,0,1,0,0,1,1,1,0,1]],"displayWidth":172,"displayHeight":172,"spacing":100,"style":{"gridBorderColor":"#ffffff","gridBorderWidth":"3","dotColor":"#ffffff","dotLineWidth":"1"}},"pluginResponse":[{"startTime":248269.49999993667,"rt":3020.9999999497086,"response":[{"id":0,"name":"Left","answer":100,"prompt":"Left","lastChangedTime":250750.49999984913},{"id":1,"name":"Right","answer":"50","prompt":"Right","lastChangedTime":null}],"stimulusOffTime":899.9999999068677,"trial_type":"canvas-sliders-response","trial_index":83,"time_elapsed":251182,"internal_node_id":"0.0-13.0-0.11"},{"choiceTime":888.0000000353903,"choice":2,"totalTime":2891.0000000614673,"image":"http://localhost:8080/ExploringSocialMetacognition/assets/image/advisor2.png","adviceTime":2003.000000026077,"trial_type":"jspsych-jas-present-advice-choice","trial_index":84,"time_elapsed":254073,"internal_node_id":"0.0-13.0-1.11"},{"startTime":254183.49999981,"rt":1834.000000031665,"response":[{"id":0,"name":"Left","answer":100,"prompt":"Left","lastChangedTime":255189.49999986216},{"id":1,"name":"Right","answer":"50","prompt":"Right","lastChangedTime":null}],"trial_type":"canvas-sliders-response","trial_index":85,"time_elapsed":255908,"internal_node_id":"0.0-13.0-2.11"}],"advisorAgrees":false},{"type":2,"typeName":"choice","block":3,"advisorId":2,"choice":[3,2],"answer":[0,0],"confidence":[100,100],"whichSide":1,"practice":false,"feedback":false,"warnings":["getConfidenceCategory: too few trials available to estimate confidence"],"stimulusDrawTime":[257624.49999991804],"stimulusOffTime":[899.9999999068677,null],"fixationDrawTime":[257124.49999991804],"id":28,"dotDifference":4,"grid":{"dotCountL":196,"dotCountR":204,"gridWidth":20,"gridHeight":20,"dotWidth":2,"dotHeight":2,"paddingX":6,"paddingY":6,"gridL":[[1,0,1,0,0,0,0,0,0,1,1,0,0,1,0,0,0,1,1,1],[1,0,0,1,1,0,0,1,1,1,1,0,1,1,0,1,1,1,1,0],[1,0,1,1,1,1,1,1,1,0,0,0,0,1,0,1,1,0,1,1],[0,0,1,1,0,1,0,0,1,1,1,0,0,1,1,0,1,0,0,1],[0,1,1,0,1,1,0,0,0,1,1,0,1,1,0,0,1,0,0,1],[0,1,0,0,1,1,1,0,1,1,0,1,0,1,1,0,0,1,0,0],[0,1,0,0,1,0,0,0,1,1,0,0,0,0,0,0,1,0,0,0],[1,0,1,0,0,0,1,0,1,0,0,1,0,1,1,0,1,1,1,0],[1,1,1,1,0,1,1,0,0,1,1,1,0,0,1,0,1,1,0,1],[1,0,1,0,0,1,1,0,1,1,0,1,1,0,1,0,1,1,0,0],[1,1,0,1,0,0,0,1,0,1,0,0,1,1,1,1,0,1,1,1],[0,0,1,0,1,0,0,0,1,1,1,1,0,1,1,0,0,0,0,1],[0,0,0,1,0,0,1,1,1,0,0,1,0,0,0,1,1,1,0,0],[0,1,0,1,1,0,0,0,0,0,0,1,1,0,1,1,1,1,1,1],[1,0,0,0,0,0,0,1,0,0,1,1,1,1,1,1,0,0,0,0],[0,1,0,1,0,1,0,0,1,1,0,1,1,0,1,0,1,0,0,1],[1,0,1,0,1,0,1,0,1,0,1,0,0,1,0,0,0,0,0,1],[1,0,1,0,1,0,1,0,0,1,0,0,0,1,0,0,0,1,0,0],[0,0,0,1,1,1,0,1,0,1,0,1,1,1,1,1,0,0,0,0],[0,0,0,1,0,1,0,1,0,1,0,1,1,1,0,1,0,1,0,1]],"gridR":[[1,1,1,1,0,0,1,1,1,1,0,1,1,1,0,0,0,0,0,1],[1,1,0,1,1,1,1,0,1,0,0,1,1,1,0,1,1,0,0,1],[1,1,1,1,1,1,0,0,0,0,1,1,0,1,0,0,0,0,0,1],[1,0,0,0,0,0,0,1,1,1,0,1,1,0,1,1,0,0,0,1],[0,1,1,1,0,1,1,1,0,1,0,1,1,0,0,0,1,1,0,1],[0,0,0,0,0,0,1,0,1,0,0,1,0,1,1,0,1,0,0,0],[0,1,0,1,0,0,1,0,0,1,0,1,1,1,1,1,1,1,0,0],[1,0,0,0,0,0,0,0,1,1,1,0,1,0,1,0,0,1,0,1],[1,0,0,0,0,0,1,1,0,1,0,1,1,0,1,1,1,1,0,1],[0,0,0,1,1,0,1,0,0,0,0,0,0,1,1,0,0,0,0,1],[0,1,1,1,0,0,1,1,1,0,0,0,1,1,0,0,0,0,1,1],[0,1,0,1,0,1,1,1,1,1,0,1,1,0,1,0,0,1,1,1],[0,1,1,0,0,1,1,0,1,1,1,1,1,1,1,0,0,0,0,1],[1,0,0,1,1,0,1,0,1,0,0,1,0,1,0,1,1,0,1,1],[1,0,0,0,0,0,0,1,1,1,0,1,0,1,0,1,1,1,0,1],[0,0,0,0,1,1,0,0,1,1,1,0,1,1,1,0,0,0,1,1],[1,1,0,0,0,0,0,1,0,0,1,0,0,0,0,0,1,0,1,0],[0,1,0,0,0,0,1,1,0,1,1,1,1,0,1,0,0,0,1,0],[1,1,0,1,1,0,1,0,0,1,0,1,0,1,0,1,1,1,1,0],[0,0,1,1,1,1,0,1,1,0,1,0,1,1,1,0,0,1,1,1]],"displayWidth":172,"displayHeight":172,"spacing":100,"style":{"gridBorderColor":"#ffffff","gridBorderWidth":"3","dotColor":"#ffffff","dotLineWidth":"1"}},"pluginResponse":[{"startTime":256924.4999999646,"rt":3221.9999998342246,"response":[{"id":0,"name":"Left","answer":100,"prompt":"Left","lastChangedTime":259129.49999980628},{"id":1,"name":"Right","answer":"50","prompt":"Right","lastChangedTime":null}],"stimulusOffTime":899.9999999068677,"trial_type":"canvas-sliders-response","trial_index":87,"time_elapsed":260037,"internal_node_id":"0.0-15.0-0.0"},{"choiceTime":569.0000001341105,"choice":2,"totalTime":2570.9999999962747,"image":"http://localhost:8080/ExploringSocialMetacognition/assets/image/advisor2.png","adviceTime":2001.9999998621643,"trial_type":"jspsych-jas-present-advice-choice","trial_index":88,"time_elapsed":262608,"internal_node_id":"0.0-15.0-1.0"},{"startTime":262718.499999959,"rt":1700.999999884516,"response":[{"id":0,"name":"Left","answer":100,"prompt":"Left","lastChangedTime":263752.4999999441},{"id":1,"name":"Right","answer":"50","prompt":"Right","lastChangedTime":null}],"trial_type":"canvas-sliders-response","trial_index":89,"time_elapsed":264310,"internal_node_id":"0.0-15.0-2.0"}],"advisorAgrees":true},{"type":2,"typeName":"choice","block":3,"advisorId":3,"choice":[3,2],"answer":[1,1],"confidence":[74,72],"whichSide":0,"practice":false,"feedback":false,"warnings":["getConfidenceCategory: too few trials available to estimate confidence"],"stimulusDrawTime":[265320.4999999143],"stimulusOffTime":[899.9999999068677,null],"fixationDrawTime":[264820.4999999