{"participantId":1520252635384,"dotCount":200,"dotDifference":4,"difficultyStep":3,"advisors":[{"id":2,"adviceType":0,"voice":{"basePath":"","id":1,"name":"Annie","lines":{"think_left":{"filePath":"assets/audio/voices/1/think_left.wav","string":"I think it was on the LEFT","loaded":true,"loading":true,"data":null,"buffer":{},"side":0,"confidence":0},"think_right":{"filePath":"assets/audio/voices/1/think_right.wav","string":"I think it was on the RIGHT","loaded":true,"loading":true,"data":null,"buffer":{},"side":1,"confidence":0},"left_think":{"filePath":"assets/audio/voices/1/left_think.wav","string":"It was on the LEFT, I think","loaded":true,"loading":true,"data":null,"buffer":{},"side":0,"confidence":0},"right_think":{"filePath":"assets/audio/voices/1/right_think.wav","string":"It was on the RIGHT, I think","loaded":true,"loading":true,"data":null,"buffer":{},"side":1,"confidence":0},"intro":{"filePath":"assets/audio/voices/1/intro.wav","string":"Hello, my name is ANNIE","loaded":true,"loading":true,"data":null,"buffer":{},"side":false}}},"name":"Annie","portrait":{},"portraitSrc":"http://localhost:8080/ExploringSocialMetacognition/assets/image/advisor3.png"},{"id":1,"adviceType":2,"voice":{"basePath":"","id":3,"name":"Kate","lines":{"think_left":{"filePath":"assets/audio/voices/3/think_left.wav","string":"I think it was on the LEFT","loaded":true,"loading":true,"data":null,"buffer":{},"side":0,"confidence":0},"think_right":{"filePath":"assets/audio/voices/3/think_right.wav","string":"I think it was on the RIGHT","loaded":true,"loading":true,"data":null,"buffer":{},"side":1,"confidence":0},"left_think":{"filePath":"assets/audio/voices/3/left_think.wav","string":"It was on the LEFT, I think","loaded":true,"loading":true,"data":null,"buffer":{},"side":0,"confidence":0},"right_think":{"filePath":"assets/audio/voices/3/right_think.wav","string":"It was on the RIGHT, I think","loaded":true,"loading":true,"data":null,"buffer":{},"side":1,"confidence":0},"intro":{"filePath":"assets/audio/voices/3/intro.wav","string":"Hello, my name is KATE","loaded":true,"loading":true,"data":null,"buffer":{},"side":false}}},"name":"Kate","portrait":{},"portraitSrc":"http://localhost:8080/ExploringSocialMetacognition/assets/image/advisor1.png"},{"id":3,"adviceType":1,"voice":{"basePath":"","id":2,"name":"Bea","lines":{"think_left":{"filePath":"assets/audio/voices/2/think_left.wav","string":"I think it was on the LEFT","loaded":true,"loading":true,"data":null,"buffer":{},"side":0,"confidence":0},"think_right":{"filePath":"assets/audio/voices/2/think_right.wav","string":"I think it was on the RIGHT","loaded":true,"loading":true,"data":null,"buffer":{},"side":1,"confidence":0},"left_think":{"filePath":"assets/audio/voices/2/left_think.wav","string":"It was on the LEFT, I think","loaded":true,"loading":true,"data":null,"buffer":{},"side":0,"confidence":0},"right_think":{"filePath":"assets/audio/voices/2/right_think.wav","string":"It was on the RIGHT, I think","loaded":true,"loading":true,"data":null,"buffer":{},"side":1,"confidence":0},"intro":{"filePath":"assets/audio/voices/2/intro.wav","string":"Hello, my name is BEA","loaded":true,"loading":true,"data":null,"buffer":{},"side":false}}},"name":"Bea","portrait":{},"portraitSrc":"http://localhost:8080/ExploringSocialMetacognition/assets/image/advisor2.png"}],"blockCount":2,"blockStructure":{"0":0,"1":6,"2":6},"blockLength":12,"practiceBlockCount":1,"practiceBlockStructure":{"0":0,"1":4,"2":0},"practiceBlockLength":4,"preTrialInterval":200,"preStimulusInterval":500,"stimulusDuration":200,"feedbackDuration":200,"questionnaireFrequency":4,"questionnaireStack":[],"miscTrials":[{"view_history":"[{\"page_index\":0,\"viewing_time\":787},{\"page_index\":1,\"viewing_time\":3114}]","rt":3901,"trial_type":"instructions","trial_index":0,"time_elapsed":3902,"internal_node_id":"0.0-0.0"},{"view_history":"[{\"page_index\":0,\"viewing_time\":1096}]","rt":1096,"trial_type":"instructions","trial_index":2,"time_elapsed":7301,"internal_node_id":"0.0-2.0"},{"view_history":"[{\"page_index\":0,\"viewing_time\":664}]","rt":664,"trial_type":"instructions","trial_index":4,"time_elapsed":10520,"internal_node_id":"0.0-4.0"},{"view_history":"[{\"page_index\":0,\"viewing_time\":989}]","rt":989,"trial_type":"instructions","trial_index":8,"time_elapsed":17989,"internal_node_id":"0.0-6.0"},{"view_history":"[{\"page_index\":0,\"viewing_time\":761}]","rt":761,"trial_type":"instructions","trial_index":22,"time_elapsed":111130,"internal_node_id":"0.0-9.0"},{"view_history":"[{\"page_index\":0,\"viewing_time\":775}]","rt":775,"trial_type":"instructions","trial_index":23,"time_elapsed":111905,"internal_node_id":"0.0-10.0"},{"view_history":"[{\"page_index\":0,\"viewing_time\":987}]","rt":988,"trial_type":"instructions","trial_index":62,"time_elapsed":199158,"internal_node_id":"0.0-14.0"}],"trials":[{"type":1,"typeName":"force","block":1,"advisorId":0,"choice":[],"answer":[1,null],"confidence":[50,null],"whichSide":1,"practice":true,"feedback":true,"warnings":[],"stimulusDrawTime":[4814.0000000130385],"stimulusOffTime":[null],"fixationDrawTime":[4313.000000081956],"id":1,"dotDifference":30,"grid":{"dotCountL":170,"dotCountR":230,"gridWidth":20,"gridHeight":20,"dotWidth":2,"dotHeight":2,"paddingX":6,"paddingY":6,"gridL":[[0,0,1,0,0,0,0,1,1,1,1,0,1,1,1,1,1,1,0,0],[0,0,0,0,0,1,0,0,1,0,0,0,0,1,1,1,0,1,0,1],[1,0,0,1,1,1,1,1,1,0,0,0,1,0,1,1,0,0,1,0],[0,0,0,0,1,0,0,1,1,0,1,0,1,0,0,0,0,0,1,0],[1,0,1,1,0,1,0,1,0,0,0,0,0,1,0,0,1,1,0,0],[1,1,0,0,1,0,1,0,0,0,1,1,0,0,0,1,0,0,0,0],[1,0,1,0,0,0,1,0,0,0,1,1,0,1,0,1,1,1,0,1],[1,0,0,1,0,1,1,1,0,1,1,0,1,0,1,1,0,1,0,0],[0,0,0,1,0,1,1,1,0,1,0,0,0,0,0,1,0,0,0,0],[0,0,0,1,1,1,0,0,0,0,1,0,1,0,1,1,1,1,0,0],[1,0,0,0,1,0,1,0,0,0,0,0,0,1,0,0,1,0,0,0],[0,1,0,0,1,1,1,0,1,0,0,1,0,1,0,0,0,0,1,1],[1,0,0,1,0,0,0,0,0,0,0,0,0,0,1,1,0,0,0,1],[0,1,0,1,1,1,0,0,1,1,1,1,0,1,0,0,1,1,1,0],[0,0,0,1,1,1,0,0,1,1,0,0,0,0,1,1,1,0,1,0],[0,1,0,0,0,0,0,1,0,0,1,1,1,0,1,0,0,1,1,0],[0,1,0,1,1,0,1,1,0,0,0,1,0,0,1,0,0,0,0,1],[1,0,1,0,1,0,1,0,1,1,1,0,0,0,1,0,1,1,1,0],[1,0,0,1,0,0,0,1,1,0,1,0,0,0,1,0,0,0,0,0],[1,1,1,0,1,1,1,0,1,0,0,0,0,1,1,0,0,1,0,1]],"gridR":[[1,0,0,1,0,1,0,1,1,1,0,1,1,0,0,1,1,0,1,1],[1,0,1,1,0,0,1,1,1,0,0,0,0,1,1,0,1,0,0,1],[0,1,1,1,0,1,0,0,1,1,1,0,0,0,0,1,1,1,0,1],[0,0,1,1,1,0,0,0,0,1,0,0,1,1,1,1,0,1,1,0],[1,0,1,1,0,1,1,1,1,1,1,0,0,0,1,0,1,0,0,1],[1,0,1,1,0,1,1,1,0,1,1,0,1,1,0,0,0,1,0,1],[1,1,1,0,0,0,1,1,0,1,0,0,1,1,1,1,1,1,1,1],[0,1,0,1,1,0,0,0,1,0,1,0,1,1,1,0,1,1,1,1],[1,1,0,1,1,1,0,0,1,0,0,0,0,0,1,1,1,1,1,1],[1,1,0,1,0,1,0,0,1,0,0,0,1,1,0,1,1,1,1,0],[0,1,0,1,0,1,1,1,1,0,1,1,1,1,1,0,1,0,0,0],[1,1,0,0,1,0,1,0,1,1,0,0,0,1,0,1,0,0,1,1],[0,0,1,0,1,1,0,1,1,0,1,0,0,0,1,1,1,1,0,0],[0,1,1,1,1,1,1,1,0,0,1,0,1,1,1,1,1,1,0,1],[1,0,0,0,1,0,0,0,1,0,1,1,0,0,0,0,1,0,0,0],[1,0,1,1,1,0,0,1,0,0,0,1,1,0,1,1,1,0,1,1],[0,1,0,0,0,1,1,1,1,0,1,1,1,1,0,1,1,1,1,0],[1,0,1,1,1,1,1,0,1,1,0,0,0,1,1,1,0,0,1,0],[0,1,1,0,0,1,0,0,0,1,0,0,1,0,1,1,1,0,1,0],[1,1,1,1,1,1,0,1,1,1,1,0,1,1,1,1,0,1,0,0]],"displayWidth":172,"displayHeight":172,"spacing":100,"style":{"gridBorderColor":"#ffffff","gridBorderWidth":"3","dotColor":"#ffffff","dotLineWidth":"1"}},"pluginResponse":[{"startTime":4113.0000001285225,"rt":2098.9999999292195,"response":[{"id":0,"name":"Left","answer":50,"prompt":"Left","lastChangedTime":null},{"id":1,"name":"Right","answer":"50","prompt":"Right","lastChangedTime":5732.000000076368}],"trial_type":"canvas-sliders-response","trial_index":1,"time_elapsed":6005,"internal_node_id":"0.0-1.0"}]},{"type":1,"typeName":"force","block":1,"advisorId":0,"choice":[],"answer":[0,null],"confidence":[72,null],"whichSide":0,"practice":true,"feedback":true,"warnings":[],"stimulusDrawTime":[8211.00000012666],"stimulusOffTime":[null],"fixationDrawTime":[7711.00000012666],"id":2,"dotDifference":30,"grid":{"dotCountL":230,"dotCountR":170,"gridWidth":20,"gridHeight":20,"dotWidth":2,"dotHeight":2,"paddingX":6,"paddingY":6,"gridL":[[0,0,1,1,1,1,0,1,0,0,0,1,0,0,1,0,1,0,1,0],[1,0,1,1,0,1,1,0,1,0,1,0,0,1,1,1,1,1,1,0],[1,0,1,1,1,0,0,0,1,0,1,1,1,1,1,1,1,0,1,1],[0,1,1,1,0,1,0,1,0,0,1,1,1,1,1,1,0,0,1,1],[1,1,1,1,1,0,0,0,1,1,1,0,0,1,0,0,1,1,1,1],[0,1,0,1,1,1,1,0,0,0,1,1,0,0,1,1,1,0,0,0],[1,0,0,0,0,0,1,1,1,0,1,1,1,0,1,1,1,0,1,1],[1,0,1,1,1,1,1,1,1,1,0,0,1,1,1,0,1,1,0,1],[0,1,1,1,1,0,1,0,1,0,1,0,0,1,0,0,0,1,1,1],[1,1,1,1,0,0,1,0,1,0,1,0,1,1,0,1,0,1,0,0],[1,1,0,0,0,0,1,0,0,1,0,0,1,1,0,0,0,1,0,1],[0,0,1,1,1,1,1,1,1,1,0,0,1,0,0,1,1,1,0,1],[1,1,1,0,0,0,0,1,0,1,1,1,0,0,1,1,0,0,1,0],[1,0,0,0,0,1,1,0,1,0,0,0,1,1,0,0,1,1,1,0],[0,1,0,1,0,0,1,0,0,0,1,0,1,1,1,1,1,1,0,0],[1,1,1,0,0,0,0,1,1,1,1,1,1,1,0,1,0,0,1,1],[0,0,1,0,0,1,0,1,0,0,1,1,0,0,1,1,1,0,0,0],[0,1,1,1,0,1,1,1,1,1,1,1,1,0,1,0,0,0,0,1],[0,1,1,1,1,0,1,0,0,1,0,1,1,1,0,0,0,1,0,1],[0,0,1,1,1,1,1,0,0,0,1,1,1,1,1,1,1,0,1,1]],"gridR":[[1,0,0,1,0,0,1,0,0,0,0,0,0,0,0,1,0,0,0,1],[0,1,0,0,0,0,0,0,0,0,1,1,1,0,1,1,0,0,1,0],[0,0,1,0,0,0,0,0,0,1,0,1,1,0,0,1,1,0,1,0],[1,0,1,0,1,0,0,1,1,0,0,1,0,1,0,1,0,0,0,0],[0,0,0,1,0,0,1,0,1,1,0,1,0,1,0,1,1,0,1,0],[1,0,0,0,1,0,0,0,1,0,1,0,0,0,1,1,1,1,0,1],[0,0,0,1,0,0,1,1,1,1,0,0,0,0,1,1,1,0,0,1],[0,0,1,0,1,1,0,0,0,1,1,0,0,0,0,0,1,1,1,0],[1,0,0,0,1,1,0,0,1,0,1,0,1,1,1,1,0,1,0,0],[0,0,0,1,1,1,1,1,1,1,1,0,0,0,1,0,0,1,0,1],[0,0,0,1,1,0,1,1,1,0,1,0,0,0,0,1,1,0,0,1],[0,0,1,0,1,1,0,0,0,1,1,0,0,1,1,1,0,1,0,0],[0,1,1,1,0,0,0,0,0,1,0,0,0,1,1,0,1,1,0,1],[0,1,1,1,1,0,1,0,0,0,1,1,0,1,0,1,0,1,0,1],[0,1,0,0,0,1,0,0,0,0,0,0,0,1,1,1,0,0,0,0],[0,1,0,1,1,0,1,0,1,1,1,0,1,1,1,0,0,0,0,1],[1,1,0,0,0,0,0,1,1,1,0,0,0,0,0,1,0,1,0,0],[1,1,0,1,0,1,0,0,0,0,1,1,0,1,0,0,0,0,1,0],[0,0,1,0,1,1,0,1,1,0,0,0,1,1,1,0,0,0,0,1],[0,0,1,0,0,0,1,1,0,0,1,1,1,0,0,0,0,1,1,1]],"displayWidth":172,"displayHeight":172,"spacing":100,"style":{"gridBorderColor":"#ffffff","gridBorderWidth":"3","dotColor":"#ffffff","dotLineWidth":"1"}},"pluginResponse":[{"startTime":7510.999999940395,"rt":2354.0000000502914,"response":[{"id":0,"name":"Left","answer":72,"prompt":"Left","lastChangedTime":9387.000000104308},{"id":1,"name":"Right","answer":"50","prompt":"Right","lastChangedTime":null}],"trial_type":"canvas-sliders-response","trial_index":3,"time_elapsed":9657,"internal_node_id":"0.0-3.0"}]},{"type":1,"typeName":"force","block":1,"advisorId":1,"choice":[],"answer":[1,1],"confidence":[50,84],"whichSide":1,"practice":true,"feedback":true,"warnings":["getConfidenceCategory: too few trials available to estimate confidence"],"stimulusDrawTime":[11429.000000003725],"stimulusOffTime":[null,null],"fixationDrawTime":[10929.999999934807],"id":3,"dotDifference":30,"grid":{"dotCountL":170,"dotCountR":230,"gridWidth":20,"gridHeight":20,"dotWidth":2,"dotHeight":2,"paddingX":6,"paddingY":6,"gridL":[[1,1,1,0,1,1,1,0,0,1,1,1,1,0,1,0,1,0,0,1],[0,1,0,0,1,1,0,1,0,1,1,0,0,1,0,1,0,1,1,0],[0,0,1,1,0,0,0,0,0,1,1,1,1,1,0,0,0,1,0,0],[0,1,1,0,0,1,1,1,0,0,0,1,0,1,0,0,0,0,1,0],[0,0,0,0,1,0,0,1,0,0,1,0,0,1,0,0,1,1,1,1],[1,0,0,0,0,0,0,0,0,0,1,0,1,0,0,1,1,0,0,1],[0,0,0,0,1,0,1,1,0,0,0,0,0,0,0,0,1,0,1,1],[0,0,1,0,1,1,0,1,1,1,0,1,0,0,0,0,0,1,0,1],[1,0,1,0,1,0,0,1,0,0,0,0,1,1,1,0,0,1,0,1],[0,0,0,1,0,0,1,0,0,0,0,0,0,0,1,1,0,0,0,1],[0,0,0,0,1,0,1,0,1,1,0,0,1,1,0,0,0,0,1,1],[1,0,1,0,1,1,0,0,0,1,0,0,0,1,0,1,1,1,0,1],[0,0,0,0,1,1,0,1,0,0,0,1,0,0,0,0,1,1,0,1],[1,1,0,1,0,1,1,0,1,0,0,0,1,0,0,1,1,1,1,1],[1,1,1,1,0,0,0,0,0,0,1,1,1,1,0,1,0,0,1,0],[1,1,0,1,1,0,1,0,0,1,0,0,1,0,0,0,1,0,0,1],[0,0,0,1,0,0,1,1,0,0,0,1,0,1,1,0,1,0,1,0],[1,1,0,0,0,0,0,0,1,1,0,0,0,0,0,0,1,1,1,0],[0,1,0,1,1,0,1,0,0,1,0,1,1,1,0,0,1,0,0,0],[0,1,0,0,1,1,1,0,0,0,0,1,0,0,0,0,1,1,1,0]],"gridR":[[0,0,1,0,1,1,0,0,1,0,0,0,1,1,0,1,1,0,1,1],[1,0,0,1,0,1,1,0,1,1,1,1,0,1,0,0,0,0,0,1],[1,0,0,1,1,1,0,0,1,0,1,0,0,1,1,1,0,1,1,1],[1,1,0,1,1,0,1,1,0,0,1,1,1,1,0,0,0,1,1,1],[1,1,0,0,1,0,0,1,0,1,1,1,0,0,1,1,0,1,1,1],[0,1,0,1,0,0,1,1,1,1,1,0,0,0,0,0,0,0,1,1],[1,1,1,1,0,0,1,1,1,1,1,0,1,1,1,0,1,0,0,0],[1,1,1,0,1,0,1,0,1,1,1,1,0,1,1,0,0,1,1,1],[0,0,0,0,0,0,1,1,1,1,1,1,1,1,0,0,1,0,0,0],[1,0,0,1,0,0,1,0,0,1,1,1,0,1,1,0,1,1,1,1],[1,1,1,1,1,1,1,0,0,1,1,0,0,0,0,1,0,0,0,1],[0,0,1,0,0,0,1,1,0,0,1,0,1,1,0,1,0,0,0,1],[1,1,1,0,0,1,1,1,0,1,0,1,0,1,0,1,0,1,0,1],[0,1,0,1,1,0,1,1,1,1,1,0,1,0,1,0,0,0,1,1],[0,1,1,1,1,0,1,1,1,0,1,0,1,1,1,1,1,1,1,1],[1,0,0,1,0,0,1,1,1,0,1,1,0,1,0,0,1,1,0,1],[1,0,0,0,1,0,0,0,1,0,1,1,0,0,0,1,1,0,0,1],[1,1,1,0,0,0,1,1,1,1,0,1,0,1,0,0,0,0,0,1],[0,1,1,1,0,1,0,0,1,1,1,1,1,1,1,0,0,1,1,0],[1,1,0,0,1,0,1,1,0,1,0,1,1,1,1,1,1,1,1,1]],"displayWidth":172,"displayHeight":172,"spacing":100,"style":{"gridBorderColor":"#ffffff","gridBorderWidth":"3","dotColor":"#ffffff","dotLineWidth":"1"}},"pluginResponse":[{"startTime":10729.000000050291,"rt":2229.9999999813735,"response":[{"id":0,"name":"Left","answer":50,"prompt":"Left","lastChangedTime":null},{"id":1,"name":"Right","answer":"50","prompt":"Right","lastChangedTime":12506.000000052154}],"trial_type":"canvas-sliders-response","trial_index":5,"time_elapsed":12751,"internal_node_id":"0.0-5.0-0.0"},{"choiceTime":1.0000001639127731,"choice":1,"totalTime":2006.000000052154,"image":"http://localhost:8080/ExploringSocialMetacognition/assets/image/advisor1.png","adviceTime":2004.9999998882413,"trial_type":"jspsych-jas-present-advice-choice","trial_index":6,"time_elapsed":14957,"internal_node_id":"0.0-5.0-1.0"},{"startTime":15168.00000006333,"rt":1837.9999999888241,"response":[{"id":0,"name":"Left","answer":50,"prompt":"Left","lastChangedTime":null},{"id":1,"name":"Right","answer":"84","prompt":"Right","lastChangedTime":16456.99999993667}],"trial_type":"canvas-sliders-response","trial_index":7,"time_elapsed":16797,"internal_node_id":"0.0-5.0-2.0"}],"confidenceCategory":1,"advisorAgrees":true,"advice":{"filePath":"assets/audio/voices/3/think_right.wav","string":"I think it was on the RIGHT","loaded":true,"loading":true,"data":null,"buffer":{},"side":1,"confidence":0}},{"type":1,"typeName":"force","block":1,"advisorId":1,"choice":[],"answer":[1,1],"confidence":[50,63],"whichSide":1,"practice":true,"feedback":true,"warnings":[],"stimulusDrawTime":[18898.999999975786],"stimulusOffTime":[899.9999999068677,null],"fixationDrawTime":[18398.999999975786],"id":4,"dotDifference":27,"grid":{"dotCountL":173,"dotCountR":227,"gridWidth":20,"gridHeight":20,"dotWidth":2,"dotHeight":2,"paddingX":6,"paddingY":6,"gridL":[[0,0,0,1,0,0,0,0,1,0,0,1,1,0,0,0,1,0,0,1],[1,0,0,0,0,1,0,1,1,0,1,1,0,0,1,0,0,1,0,0],[1,1,1,0,0,0,0,1,1,0,1,0,0,0,0,0,0,0,0,0],[1,0,1,0,0,1,0,1,0,1,0,0,0,0,0,0,0,0,1,0],[1,1,1,1,1,1,0,0,1,0,1,1,1,0,0,0,1,0,0,1],[0,1,1,1,0,0,1,0,0,1,0,1,0,0,1,1,0,0,1,0],[0,1,1,1,0,0,0,1,0,0,1,1,0,0,1,0,0,1,0,1],[0,0,1,0,0,0,0,1,1,0,1,0,0,0,1,0,0,0,1,1],[1,0,1,1,1,0,1,1,1,1,0,0,0,0,1,1,0,0,0,1],[1,1,1,0,0,0,0,0,0,0,1,0,0,0,0,1,0,0,0,0],[1,1,0,0,0,1,0,0,0,0,0,0,1,0,0,0,1,1,1,0],[1,1,0,0,0,0,0,0,1,0,0,0,0,0,0,1,0,0,0,1],[1,0,0,1,1,1,0,0,0,1,0,0,1,0,0,0,1,1,0,1],[1,1,1,0,1,1,0,0,0,0,1,1,0,1,0,0,0,1,0,0],[0,1,0,0,1,1,0,1,0,1,0,0,1,0,0,1,1,1,0,0],[1,1,0,0,1,1,1,0,1,0,0,0,1,1,1,0,1,0,0,1],[0,1,0,0,0,1,0,0,1,1,1,1,0,0,0,1,1,0,1,0],[0,0,1,0,1,1,0,0,1,1,1,0,1,0,1,1,0,0,0,0],[0,1,0,1,1,0,1,1,1,0,1,0,0,0,1,0,1,1,1,0],[1,0,1,1,1,0,1,1,0,1,1,1,1,1,0,1,1,0,1,1]],"gridR":[[1,1,0,0,1,0,1,0,1,1,1,0,0,1,1,1,1,1,0,1],[1,0,0,1,0,1,1,0,1,0,1,0,1,0,0,0,1,1,0,1],[1,0,1,1,1,0,1,0,0,1,1,0,0,1,1,1,0,0,1,0],[1,0,0,1,0,1,1,1,1,1,1,0,0,0,0,1,0,0,1,1],[1,1,1,1,1,0,0,1,1,0,1,1,0,1,1,0,0,0,0,1],[1,1,1,1,1,1,1,1,0,1,1,0,1,0,1,1,1,1,0,1],[0,0,0,1,1,1,1,1,0,1,0,1,0,1,1,1,0,1,0,1],[0,0,1,1,0,1,0,0,0,1,1,1,1,1,1,1,1,1,1,0],[0,1,1,1,1,1,1,1,1,0,1,0,1,0,1,0,1,0,1,1],[1,1,1,1,0,0,0,0,0,0,0,0,1,0,1,1,1,1,1,0],[0,0,1,1,0,1,1,0,1,1,1,0,1,0,0,0,1,1,0,1],[1,1,0,0,1,1,1,1,0,1,1,1,1,1,0,1,1,1,0,0],[1,0,1,0,1,1,0,0,1,0,1,0,1,1,1,1,0,0,1,0],[1,0,0,0,0,0,0,1,0,0,0,1,0,1,0,0,1,1,0,1],[1,1,1,1,0,1,1,0,1,0,1,1,1,1,0,0,1,1,1,1],[0,1,0,1,1,0,1,1,1,0,0,1,0,1,1,0,1,1,0,0],[0,0,1,0,1,1,0,0,1,1,1,0,0,0,1,1,0,1,1,0],[0,0,0,0,1,1,0,0,1,0,1,0,0,1,0,1,0,1,0,1],[1,1,1,1,0,1,1,1,1,0,1,0,0,0,0,0,0,1,0,0],[0,0,1,1,0,0,0,1,1,0,0,1,0,0,1,1,0,0,0,1]],"displayWidth":172,"displayHeight":172,"spacing":100,"style":{"gridBorderColor":"#ffffff","gridBorderWidth":"3","dotColor":"#ffffff","dotLineWidth":"1"}},"pluginResponse":[{"startTime":18199.00000002235,"rt":2496.999999973923,"response":[{"id":0,"name":"Left","answer":50,"prompt":"Left","lastChangedTime":null},{"id":1,"name":"Right","answer":"50","prompt":"Right","lastChangedTime":19959.999999962747}],"stimulusOffTime":899.9999999068677,"trial_type":"canvas-sliders-response","trial_index":9,"time_elapsed":20488,"internal_node_id":"0.0-7.0-0.0"},{"choiceTime":0,"choice":1,"totalTime":2003.000000026077,"image":"http://localhost:8080/ExploringSocialMetacognition/assets/image/advisor1.png","adviceTime":2003.000000026077,"trial_type":"jspsych-jas-present-advice-choice","trial_index":10,"time_elapsed":22491,"internal_node_id":"0.0-7.0-1.0"},{"startTime":22701.000000117347,"rt":66199.99999995343,"response":[{"id":0,"name":"Left","answer":50,"prompt":"Left","lastChangedTime":null},{"id":1,"name":"Right","answer":"63","prompt":"Right","lastChangedTime":88279.00000009686}],"trial_type":"canvas-sliders-response","trial_index":11,"time_elapsed":88693,"internal_node_id":"0.0-7.0-2.0"}],"confidenceCategory":0,"advisorAgrees":false,"advice":{"filePath":"assets/audio/voices/3/think_left.wav","string":"I think it was on the LEFT","loaded":true,"loading":true,"data":null,"buffer":{},"side":0,"confidence":0}},{"type":1,"typeName":"force","block":1,"advisorId":1,"choice":[],"answer":[0,0],"confidence":[74,93],"whichSide":0,"practice":true,"feedback":true,"warnings":[],"stimulusDrawTime":[89803.00000007264],"stimulusOffTime":[900.9999998379499,null],"fixationDrawTime":[89303.00000007264],"id":5,"dotDifference":24,"grid":{"dotCountL":224,"dotCountR":176,"gridWidth":20,"gridHeight":20,"dotWidth":2,"dotHeight":2,"paddingX":6,"paddingY":6,"gridL":[[1,1,1,1,0,1,1,1,1,0,1,0,1,1,0,1,1,1,1,1],[1,1,1,0,1,0,1,1,1,0,1,1,1,1,0,1,0,0,1,0],[1,1,0,1,1,1,1,1,0,1,1,1,0,0,1,1,1,0,1,0],[1,1,0,0,1,1,0,1,0,1,1,0,0,1,0,0,0,0,0,1],[1,1,0,0,1,1,1,1,1,0,1,1,0,0,1,0,1,0,1,0],[0,0,1,0,0,0,1,0,1,1,0,1,1,0,0,1,1,1,1,0],[0,1,0,1,1,1,1,0,1,1,1,0,1,0,1,1,0,0,1,1],[1,1,0,1,0,1,0,1,1,0,1,1,1,0,0,0,1,0,0,1],[1,0,0,0,0,1,0,1,1,1,0,1,0,1,1,0,0,1,0,1],[0,0,0,0,1,0,0,1,0,1,1,1,0,1,0,0,1,0,0,1],[1,0,1,0,1,0,1,0,1,1,1,0,0,0,0,1,1,0,1,1],[1,1,1,1,1,1,0,0,0,1,1,1,1,0,0,0,0,0,0,1],[0,1,1,0,1,0,0,0,1,1,0,1,0,1,0,0,1,1,0,1],[0,0,1,0,1,0,1,1,0,0,1,0,0,0,1,1,0,0,1,0],[0,0,0,0,0,1,0,1,1,0,1,0,1,1,1,1,1,0,1,0],[1,0,1,1,0,0,1,0,0,1,1,1,0,1,0,1,0,1,1,1],[1,0,1,0,1,1,1,0,1,1,0,1,1,1,1,0,0,0,1,0],[1,0,1,0,0,0,1,0,0,1,0,1,1,1,0,1,1,1,1,0],[0,0,0,0,1,1,1,1,0,1,1,0,0,1,1,1,1,0,0,0],[0,1,0,1,0,1,1,1,1,1,1,1,1,0,1,1,0,1,0,0]],"gridR":[[1,0,1,1,1,0,0,1,0,0,0,1,0,0,1,0,0,1,0,1],[1,0,1,1,1,1,1,0,0,1,1,1,1,1,0,1,1,0,0,0],[1,1,1,0,0,1,1,0,0,0,1,0,0,0,1,1,0,1,0,0],[1,1,1,1,0,0,1,0,1,1,0,1,0,0,0,0,0,0,0,1],[1,0,0,1,0,0,1,0,1,1,0,1,0,1,0,1,0,0,0,0],[1,0,1,0,0,1,0,0,0,0,1,0,1,1,0,1,0,1,0,0],[0,0,1,1,0,1,0,1,1,0,0,0,0,0,0,0,0,0,0,1],[0,0,0,0,1,0,0,0,0,1,1,1,1,0,0,0,0,0,1,1],[0,1,0,0,1,0,0,0,0,0,0,0,1,1,0,1,0,1,0,1],[0,0,0,1,0,1,0,1,1,1,1,1,1,1,0,0,0,1,1,1],[1,1,1,1,0,0,0,0,1,0,0,0,0,0,1,1,1,1,0,1],[1,0,0,1,1,0,1,1,1,1,1,1,1,0,0,0,1,0,1,0],[0,1,0,1,0,1,0,0,0,0,0,0,0,0,0,0,0,1,0,1],[1,0,0,0,1,0,1,0,0,1,0,0,0,1,0,0,1,1,1,0],[0,0,1,0,1,0,0,0,0,0,1,1,1,0,0,1,1,0,0,0],[0,1,0,1,0,1,0,1,1,1,0,0,0,1,1,1,1,0,1,0],[1,1,0,0,0,1,1,0,0,0,1,1,1,0,0,1,0,1,1,1],[0,0,0,0,1,0,1,0,0,0,1,0,1,1,1,0,0,0,0,0],[1,1,1,0,1,1,1,0,0,0,0,0,1,0,0,1,0,0,0,0],[1,0,0,0,0,0,0,1,0,0,1,1,1,1,1,0,1,1,0,1]],"displayWidth":172,"displayHeight":172,"spacing":100,"style":{"gridBorderColor":"#ffffff","gridBorderWidth":"3","dotColor":"#ffffff","dotLineWidth":"1"}},"pluginResponse":[{"startTime":89103.00000011921,"rt":2433.9999998919666,"response":[{"id":0,"name":"Left","answer":74,"prompt":"Left","lastChangedTime":90996.99999997392},{"id":1,"name":"Right","answer":"50","prompt":"Right","lastChangedTime":null}],"stimulusOffTime":900.9999998379499,"trial_type":"canvas-sliders-response","trial_index":12,"time_elapsed":91328,"internal_node_id":"0.0-7.0-0.1"},{"choiceTime":0,"choice":1,"totalTime":2002.000000094995,"image":"http://localhost:8080/ExploringSocialMetacognition/assets/image/advisor1.png","adviceTime":2002.000000094995,"trial_type":"jspsych-jas-present-advice-choice","trial_index":13,"time_elapsed":93331,"internal_node_id":"0.0-7.0-1.1"},{"startTime":93540.99999996834,"rt":1232.0000000763685,"response":[{"id":0,"name":"Left","answer":93,"prompt":"Left","lastChangedTime":94296.0000000894},{"id":1,"name":"Right","answer":"50","prompt":"Right","lastChangedTime":null}],"trial_type":"canvas-sliders-response","trial_index":14,"time_elapsed":94564,"internal_node_id":"0.0-7.0-2.1"}],"confidenceCategory":2,"advisorAgrees":true,"advice":{"filePath":"assets/audio/voices/3/left_think.wav","string":"It was on the LEFT, I think","loaded":true,"loading":true,"data":null,"buffer":{},"side":0,"confidence":0}},{"block":1,"advisorId":1,"choice":[],"answer":[1,1],"confidence":[21,38],"whichSide":1,"practice":true,"feedback":true,"warnings":[],"stimulusDrawTime":[95675.00000004657],"stimulusOffTime":[902.0000000018626,null],"fixationDrawTime":[95175.99999997765],"id":6,"dotDifference":21,"grid":{"dotCountL":179,"dotCountR":221,"gridWidth":20,"gridHeight":20,"dotWidth":2,"dotHeight":2,"paddingX":6,"paddingY":6,"gridL":[[0,0,0,1,1,1,1,1,0,0,1,1,0,0,0,1,0,1,0,0],[1,0,0,0,1,0,1,0,1,0,0,0,0,0,1,1,0,1,1,1],[1,1,1,1,1,0,1,0,0,0,1,0,0,0,0,0,1,0,0,1],[1,0,0,1,1,0,1,0,0,0,0,0,0,0,0,0,0,1,0,1],[0,0,1,0,0,1,0,1,1,1,0,1,0,0,0,0,0,1,1,1],[1,1,1,0,0,1,0,1,1,1,0,0,1,1,1,0,0,1,1,1],[0,1,0,0,0,0,0,0,1,0,0,0,0,0,0,0,0,0,0,1],[0,1,0,1,0,0,1,0,0,0,1,0,0,0,0,0,1,1,0,1],[1,1,0,1,0,0,0,0,1,1,0,0,0,1,1,1,1,0,1,1],[1,0,0,0,0,0,0,0,0,1,0,0,0,0,0,1,0,0,1,1],[1,1,0,1,0,0,0,1,0,0,1,0,0,1,0,0,1,0,0,1],[0,0,0,0,0,0,1,0,1,0,0,1,0,1,0,1,1,1,0,0],[0,0,0,0,1,0,1,1,1,1,0,1,0,1,1,0,1,0,1,1],[0,1,1,1,1,1,0,0,1,0,1,0,1,1,0,0,0,0,0,0],[0,1,0,0,0,1,1,0,0,1,1,0,1,0,0,1,1,1,0,0],[0,1,0,1,1,0,1,1,0,0,1,1,1,0,1,0,0,0,0,1],[0,1,0,1,0,1,0,1,1,1,1,1,1,1,0,0,0,1,0,0],[1,1,0,0,1,1,1,0,1,0,0,1,1,0,0,0,0,0,1,1],[1,1,1,0,1,0,1,1,1,1,1,1,1,1,0,0,0,0,1,1],[0,0,0,1,1,0,0,0,1,1,1,0,1,1,0,0,0,1,0,1]],"gridR":[[1,0,0,0,0,1,0,0,0,1,1,0,0,1,0,1,1,0,1,0],[1,1,1,1,0,0,0,0,1,1,0,1,0,0,0,1,0,0,0,1],[1,1,1,0,1,0,0,1,0,1,1,0,0,0,1,0,1,0,0,0],[1,0,0,0,1,0,1,1,0,1,0,1,1,1,1,1,1,1,0,1],[1,1,1,1,1,1,1,1,0,1,1,0,1,0,0,1,1,0,0,1],[1,0,0,1,1,1,1,1,0,1,1,1,0,1,1,0,1,1,1,0],[1,1,1,1,0,0,1,1,0,1,1,0,0,1,0,1,0,0,1,1],[1,1,0,1,1,1,1,0,0,0,1,0,0,1,1,1,0,1,0,1],[0,1,0,1,1,1,1,1,1,0,0,0,0,0,0,1,1,0,0,0],[1,0,0,0,1,1,1,0,1,0,1,1,1,0,0,1,1,1,1,0],[0,1,1,1,0,1,0,0,1,1,0,1,1,1,1,0,1,0,1,0],[0,1,1,1,1,0,0,1,1,0,0,1,1,0,1,0,0,1,1,1],[1,1,0,1,0,1,1,0,0,0,0,1,0,1,0,1,1,1,1,0],[0,0,1,0,0,0,0,1,0,1,0,0,1,1,1,1,1,1,1,0],[1,1,0,0,0,0,0,0,1,0,1,1,1,0,0,1,1,0,1,0],[1,1,0,0,1,0,0,0,1,0,0,0,1,1,1,1,0,1,0,1],[0,1,0,1,1,1,1,0,0,1,1,0,0,0,1,0,0,0,1,0],[1,0,1,1,0,1,0,1,1,1,1,0,0,0,0,1,0,0,1,1],[1,1,1,0,1,1,1,0,1,0,0,0,1,1,1,1,1,1,1,1],[1,1,0,1,0,1,0,1,1,0,0,0,1,0,0,0,1,1,0,1]],"displayWidth":172,"displayHeight":172,"spacing":100,"style":{"gridBorderColor":"#ffffff","gridBorderWidth":"3","dotColor":"#ffffff","dotLineWidth":"1"}},"pluginResponse":[{"startTime":94973.99999992922,"rt":2400.0000001396984,"response":[{"id":0,"name":"Left","answer":50,"prompt":"Left","lastChangedTime":null},{"id":1,"name":"Right","answer":"21","prompt":"Right","lastChangedTime":96783.00000005402}],"stimulusOffTime":902.0000000018626,"trial_type":"canvas-sliders-response","trial_index":15,"time_elapsed":97166,"internal_node_id":"0.0-7.0-0.2"},{"choiceTime":0,"choice":1,"totalTime":2002.000000094995,"image":"http://localhost:8080/ExploringSocialMetacognition/assets/image/advisor1.png","adviceTime":2002.000000094995,"trial_type":"jspsych-jas-present-advice-choice","trial_index":16,"time_elapsed":99168,"internal_node_id":"0.0-7.0-1.2"},{"startTime":99378.00000002608,"rt":1524.9999999068677,"response":[{"id":0,"name":"Left","answer":50,"prompt":"Left","lastChangedTime":null},{"id":1,"name":"Right","answer":"38","prompt":"Right","lastChangedTime":100409.99999991618}],"trial_type":"canvas-sliders-response","trial_index":17,"time_elapsed":100694,"internal_node_id":"0.0-7.0-2.2"}],"confidenceCategory":0,"advisorAgrees":true,"advice":{"filePath":"assets/audio/voices/3/think_right.wav","string":"I think it was on the RIGHT","loaded":true,"loading":true,"data":null,"buffer":{},"side":1,"confidence":0}},{"block":1,"advisorId":1,"choice":[],"answer":[1,1],"confidence":[14,32],"whichSide":1,"practice":true,"feedback":true,"warnings":[],"stimulusDrawTime":[101806.00000009872],"stimulusOffTime":[901.0000000707805,null],"fixationDrawTime":[101306.00000009872],"id":7,"dotDifference":18,"grid":{"dotCountL":182,"dotCountR":218,"gridWidth":20,"gridHeight":20,"dotWidth":2,"dotHeight":2,"paddingX":6,"paddingY":6,"gridL":[[1,1,0,1,0,0,1,1,1,1,0,0,1,1,0,1,1,0,0,1],[0,0,1,0,0,1,0,0,0,1,1,0,1,0,0,0,1,1,0,0],[1,0,1,1,0,0,0,1,1,0,1,0,0,0,0,0,0,0,1,0],[0,0,0,1,0,0,1,0,1,1,0,0,0,0,1,0,0,1,1,0],[0,0,1,0,1,0,1,0,0,1,1,0,0,0,0,1,1,0,0,0],[1,1,1,0,0,0,0,0,0,0,1,0,0,1,1,1,0,1,0,0],[1,0,1,0,1,0,1,0,0,1,1,1,1,0,1,1,1,1,0,0],[0,1,0,1,0,0,1,0,1,0,1,1,1,0,1,0,1,1,1,1],[1,0,1,1,1,0,0,1,1,0,1,1,0,1,1,0,1,1,0,0],[1,1,1,0,1,0,0,1,1,0,0,0,1,0,1,1,0,1,0,1],[0,0,1,0,1,0,1,0,0,1,1,0,0,1,1,0,0,1,0,0],[0,0,0,0,1,0,0,1,1,0,0,0,0,0,0,1,0,1,0,0],[0,1,1,1,1,0,0,0,1,0,0,0,0,1,0,0,1,1,1,0],[0,0,0,1,0,0,0,1,1,0,1,1,0,1,1,1,0,1,0,0],[0,1,0,0,0,1,1,0,1,1,0,1,1,1,1,1,0,0,1,0],[1,1,1,0,1,1,1,0,1,1,1,0,1,0,0,1,0,0,0,0],[1,0,0,1,1,1,1,0,1,1,1,0,0,1,1,0,0,1,0,1],[1,0,0,0,0,1,0,0,0,1,0,1,0,1,1,1,1,0,0,0],[0,0,0,1,1,0,1,0,1,0,1,0,0,1,1,1,0,0,1,1],[0,0,0,0,0,0,0,0,1,0,1,1,0,1,0,0,0,0,0,0]],"gridR":[[0,1,0,0,1,1,0,1,0,0,0,1,0,1,1,1,0,1,1,0],[1,1,1,0,0,0,1,1,0,1,0,0,1,0,0,1,0,1,0,0],[1,1,0,0,0,0,0,1,1,1,1,0,1,1,1,0,0,1,1,1],[1,0,1,1,0,0,1,1,1,1,1,1,1,1,1,1,1,1,1,1],[1,1,1,1,0,1,0,0,1,0,1,1,1,0,1,0,0,0,1,0],[0,1,1,0,0,1,1,0,0,1,1,0,0,0,0,0,1,1,1,1],[1,0,0,1,0,1,0,0,1,1,1,1,0,0,1,1,0,1,0,0],[0,1,1,1,0,0,0,0,1,0,0,0,0,1,1,1,0,1,1,1],[0,1,0,1,1,1,1,1,0,1,1,1,0,0,0,1,0,1,1,1],[1,0,1,1,1,0,0,0,1,0,1,0,0,0,1,0,1,1,1,1],[0,1,1,1,0,0,0,0,0,0,1,0,1,1,0,0,1,0,0,1],[0,1,0,1,1,0,0,1,1,1,1,0,0,1,0,1,1,0,1,0],[1,0,1,1,1,0,1,0,0,0,1,0,1,1,1,0,1,0,1,1],[1,1,1,0,0,1,1,0,0,0,0,1,1,1,0,1,0,0,1,0],[0,1,1,1,1,1,0,0,1,0,1,1,0,0,1,0,1,0,0,1],[1,1,1,0,0,0,1,0,0,0,0,1,0,1,1,0,1,1,1,1],[1,1,0,1,0,0,0,1,0,1,0,1,0,1,1,1,1,0,0,0],[1,1,1,1,1,0,1,0,1,0,0,1,0,0,0,0,0,0,0,1],[1,1,1,0,1,1,1,0,0,1,0,0,1,1,0,0,1,0,1,0],[1,1,1,0,1,0,1,1,1,0,1,1,0,1,0,0,0,1,1,0]],"displayWidth":172,"displayHeight":172,"spacing":100,"style":{"gridBorderColor":"#ffffff","gridBorderWidth":"3","dotColor":"#ffffff","dotLineWidth":"1"}},"pluginResponse":[{"startTime":101104.99999998137,"rt":2052.000000141561,"response":[{"id":0,"name":"Left","answer":50,"prompt":"Left","lastChangedTime":null},{"id":1,"name":"Right","answer":"14","prompt":"Right","lastChangedTime":102702.00000004843}],"stimulusOffTime":901.0000000707805,"trial_type":"canvas-sliders-response","trial_index":18,"time_elapsed":102948,"internal_node_id":"0.0-7.0-0.3"},{"choiceTime":0,"choice":1,"totalTime":2001.9999998621643,"image":"http://localhost:8080/ExploringSocialMetacognition/assets/image/advisor1.png","adviceTime":2001.9999998621643,"trial_type":"jspsych-jas-present-advice-choice","trial_index":19,"time_elapsed":104951,"internal_node_id":"0.0-7.0-1.3"},{"startTime":105161.0000000801,"rt":1445.9999999962747,"response":[{"id":0,"name":"Left","answer":50,"prompt":"Left","lastChangedTime":null},{"id":1,"name":"Right","answer":"32","prompt":"Right","lastChangedTime":106130.00000012107}],"trial_type":"canvas-sliders-response","trial_index":20,"time_elapsed":106398,"internal_node_id":"0.0-7.0-2.3"}],"confidenceCategory":0,"advisorAgrees":true,"advice":{"filePath":"assets/audio/voices/3/think_right.wav","string":"I think it was on the RIGHT","loaded":true,"loading":true,"data":null,"buffer":{},"side":1,"confidence":0}},{"type":1,"typeName":"force","block":2,"advisorId":3,"choice":[],"answer":[1,1],"confidence":[6,22],"whichSide":1,"practice":false,"feedback":false,"warnings":[],"stimulusDrawTime":[119796.0000000894],"stimulusOffTime":[901.0000000707805,null],"fixationDrawTime":[119294.9999999255],"id":8,"dotDifference":15,"grid":{"dotCountL":185,"dotCountR":215,"gridWidth":20,"gridHeight":20,"dotWidth":2,"dotHeight":2,"paddingX":6,"paddingY":6,"gridL":[[1,0,1,0,1,0,0,1,1,0,0,1,1,0,0,1,0,1,0,0],[1,0,0,0,1,1,1,0,1,1,0,1,1,1,1,1,1,0,1,1],[0,1,1,1,0,0,0,1,1,0,1,0,0,0,0,1,1,1,1,0],[0,1,0,1,1,0,1,0,0,0,1,0,0,0,1,0,0,0,1,0],[0,0,1,1,1,1,1,0,0,1,1,1,1,1,1,0,0,1,0,1],[0,0,1,0,0,1,0,1,0,0,0,0,1,0,1,0,1,0,0,1],[1,1,1,1,1,0,0,1,1,1,0,0,1,1,0,1,1,0,0,0],[1,0,0,0,0,0,1,0,0,1,1,0,1,0,0,1,1,0,1,1],[0,1,1,1,0,0,0,0,1,1,1,1,0,0,0,0,0,0,1,0],[0,0,1,1,0,0,0,0,1,0,1,1,1,0,0,0,0,0,0,1],[0,0,0,0,0,0,0,1,0,1,1,0,0,0,1,0,0,1,1,0],[1,1,1,0,0,1,0,1,1,1,1,0,0,1,0,0,1,0,1,0],[0,1,0,0,1,1,1,1,1,0,1,0,0,1,0,0,1,0,0,1],[1,0,0,1,0,1,0,0,0,1,0,1,0,1,0,0,0,0,0,0],[0,1,0,1,1,1,1,0,0,1,0,0,1,0,1,1,1,1,0,1],[1,0,1,1,0,1,0,0,0,1,1,1,0,0,1,0,0,1,0,0],[1,0,1,1,0,0,0,0,1,1,0,1,0,0,0,1,1,1,1,0],[0,0,1,1,1,1,1,1,0,0,1,1,0,1,0,0,0,1,1,1],[1,0,0,0,0,0,1,0,1,0,1,0,0,0,0,1,0,0,0,1],[0,0,0,0,1,1,0,0,1,0,1,1,0,0,1,0,0,1,0,0]],"gridR":[[0,0,0,1,1,0,1,1,0,1,0,1,1,1,0,1,0,0,0,0],[0,1,1,1,0,1,0,1,1,0,1,1,1,0,1,1,1,0,1,0],[0,1,0,1,0,0,0,0,0,0,1,0,1,0,1,1,1,0,1,0],[1,0,1,0,1,0,0,1,0,1,0,0,1,0,0,0,0,0,0,1],[0,1,1,1,1,1,0,1,1,1,0,1,0,1,1,1,1,1,1,1],[0,1,1,1,0,0,0,1,1,1,1,1,1,1,0,1,0,0,0,1],[0,0,1,1,1,0,0,0,0,0,1,0,1,1,1,1,1,1,1,1],[0,0,1,0,0,1,1,1,0,0,0,1,0,1,1,0,1,1,1,0],[1,1,1,1,0,1,1,1,1,1,0,1,1,1,1,1,0,1,1,1],[1,1,0,0,1,0,0,0,1,1,1,1,0,0,1,1,0,1,1,0],[0,0,1,0,0,1,1,1,0,0,1,1,0,0,1,1,1,1,0,1],[1,0,0,0,0,0,1,0,1,1,1,1,0,0,0,0,1,1,1,0],[0,0,1,1,1,1,1,1,0,0,0,1,0,0,1,0,0,1,1,0],[0,1,1,1,0,0,0,1,0,0,1,1,0,0,0,1,1,0,1,1],[1,0,0,0,0,0,0,1,1,1,0,1,1,1,0,0,0,0,0,1],[0,1,0,1,0,1,1,0,1,0,0,1,1,0,1,0,1,1,0,1],[1,1,1,0,1,1,0,1,0,1,1,1,1,1,1,0,1,1,0,1],[1,1,0,1,0,0,0,0,1,0,1,1,1,1,0,0,1,0,1,1],[0,1,1,0,0,1,0,1,1,0,0,0,0,1,0,0,1,0,0,1],[0,0,0,1,0,1,0,0,0,0,1,0,0,1,0,0,1,1,0,1]],"displayWidth":172,"displayHeight":172,"spacing":100,"style":{"gridBorderColor":"#ffffff","gridBorderWidth":"3","dotColor":"#ffffff","dotLineWidth":"1"}},"pluginResponse":[{"startTime":119094.99999997206,"rt":2152.0000000018626,"response":[{"id":0,"name":"Left","answer":50,"prompt":"Left","lastChangedTime":null},{"id":1,"name":"Right","answer":"6","prompt":"Right","lastChangedTime":120796.0000000894}],"stimulusOffTime":901.0000000707805,"trial_type":"canvas-sliders-response","trial_index":26,"time_elapsed":121039,"internal_node_id":"0.0-13.0-0.0"},{"choiceTime":0,"choice":3,"totalTime":2002.9999997932464,"image":"http://localhost:8080/ExploringSocialMetacognition/assets/image/advisor2.png","adviceTime":2002.9999997932464,"trial_type":"jspsych-jas-present-advice-choice","trial_index":27,"time_elapsed":123043,"internal_node_id":"0.0-13.0-1.0"},{"startTime":123252.000000095,"rt":1070.9999999962747,"response":[{"id":0,"name":"Left","answer":50,"prompt":"Left","lastChangedTime":null},{"id":1,"name":"Right","answer":"22","prompt":"Right","lastChangedTime":123831.99999993667}],"trial_type":"canvas-sliders-response","trial_index":28,"time_elapsed":124114,"internal_node_id":"0.0-13.0-2.0"}],"confidenceCategory":0,"advisorAgrees":true,"advice":{"filePath":"assets/audio/voices/2/right_think.wav","string":"It was on the RIGHT, I think","loaded":true,"loading":true,"data":null,"buffer":{},"side":1,"confidence":0}},{"type":2,"typeName":"choice","block":2,"advisorId":1,"choice":[1,3],"answer":[0,0],"confidence":[6,26],"whichSide":1,"practice":false,"feedback":false,"warnings":[],"stimulusDrawTime":[125223.99999992922],"stimulusOffTime":[900.0000001396984,null],"fixationDrawTime":[124723.99999992922],"id":9,"dotDifference":12,"grid":{"dotCountL":188,"dotCountR":212,"gridWidth":20,"gridHeight":20,"dotWidth":2,"dotHeight":2,"paddingX":6,"paddingY":6,"gridL":[[0,1,1,0,0,0,0,1,0,1,0,0,1,1,1,1,1,1,0,1],[0,1,0,1,1,1,0,1,0,0,1,0,0,0,1,0,1,1,0,1],[0,1,1,0,0,0,0,0,1,0,1,1,1,0,1,0,0,1,1,0],[1,0,1,0,0,1,0,1,1,1,0,1,1,1,0,1,0,0,0,0],[0,0,1,1,1,0,0,0,1,0,0,1,1,0,1,0,1,0,0,0],[1,1,1,0,0,1,0,1,1,0,0,0,1,1,0,1,0,0,0,1],[0,0,1,0,0,0,0,0,1,0,0,1,1,0,0,0,0,0,0,0],[0,0,1,0,1,0,1,1,0,0,0,1,1,0,1,1,0,1,1,0],[0,1,1,1,0,1,1,1,0,0,0,0,0,0,0,1,0,1,0,0],[0,0,0,1,0,0,1,0,0,1,1,1,1,0,1,1,0,0,0,0],[1,1,1,1,1,1,1,0,0,1,0,1,0,1,1,0,0,0,1,0],[1,0,1,1,0,1,0,1,0,0,1,0,1,1,0,0,0,1,0,0],[1,0,0,1,0,1,0,0,0,1,0,1,0,0,1,1,1,1,0,0],[0,1,1,1,1,1,1,1,0,0,1,1,0,1,0,0,0,0,1,0],[0,1,0,0,1,1,1,1,0,1,0,0,1,1,0,1,1,0,0,0],[1,1,0,1,1,0,0,1,0,1,0,0,0,1,1,1,0,0,0,1],[1,1,1,0,1,0,1,0,0,1,0,0,0,1,0,1,0,1,0,0],[1,1,0,0,0,0,0,0,1,0,1,0,0,0,1,0,1,1,0,0],[0,1,0,1,0,0,0,1,1,0,1,1,1,1,0,0,1,1,1,0],[0,1,0,0,1,1,1,0,1,1,1,1,0,1,1,0,1,0,1,0]],"gridR":[[1,1,1,1,1,0,0,0,1,1,0,0,0,0,0,1,1,1,1,1],[1,1,1,0,0,0,1,1,1,1,0,1,1,0,0,0,0,1,1,0],[1,0,1,0,1,1,1,1,1,1,0,0,0,1,0,1,0,1,1,0],[1,0,1,1,1,1,0,0,0,1,1,1,0,1,0,1,0,1,1,1],[0,0,0,1,0,0,1,0,1,1,0,1,1,0,0,0,0,1,1,0],[0,0,0,0,0,0,1,1,0,1,1,1,1,1,0,0,0,1,1,0],[1,0,0,0,0,0,1,1,1,1,1,1,0,0,0,1,0,0,1,1],[0,0,1,0,1,1,1,1,1,1,0,0,1,0,0,0,1,1,1,0],[0,1,1,0,0,1,1,1,0,0,0,1,0,1,0,1,1,0,1,1],[1,1,0,0,1,1,0,0,0,1,0,1,0,0,0,1,1,1,0,1],[0,0,0,1,1,0,1,1,0,0,1,0,1,0,1,1,1,0,1,1],[1,1,1,0,0,1,0,1,1,0,0,0,1,0,1,1,1,1,0,1],[1,0,1,1,1,1,1,0,1,0,1,0,0,0,0,0,0,0,0,0],[0,1,1,1,0,0,0,0,1,1,1,0,1,1,0,0,1,1,0,1],[0,0,0,1,0,0,1,1,0,0,1,0,1,1,1,1,0,0,0,1],[0,1,1,1,1,1,0,1,1,0,1,0,1,1,1,0,1,1,1,0],[1,1,0,0,0,0,0,0,0,1,1,1,1,0,1,0,0,0,1,0],[1,0,0,1,1,1,1,0,0,0,1,0,1,1,1,1,1,0,0,1],[0,0,0,1,0,1,1,0,1,1,0,1,1,0,1,1,1,0,1,0],[0,1,0,1,1,0,0,1,0,0,1,0,0,0,1,1,0,1,1,0]],"displayWidth":172,"displayHeight":172,"spacing":100,"style":{"gridBorderColor":"#ffffff","gridBorderWidth":"3","dotColor":"#ffffff","dotLineWidth":"1"}},"pluginResponse":[{"startTime":124523.99999997579,"rt":2581.000000005588,"response":[{"id":0,"name":"Left","answer":6,"prompt":"Left","lastChangedTime":126618.99999994785},{"id":1,"name":"Right","answer":"50","prompt":"Right","lastChangedTime":null}],"stimulusOffTime":900.0000001396984,"trial_type":"canvas-sliders-response","trial_index":29,"time_elapsed":126897,"internal_node_id":"0.0-13.0-0.1"},{"choiceTime":1121.0000000428408,"choice":1,"totalTime":3123.0000001378357,"image":"http://localhost:8080/ExploringSocialMetacognition/assets/image/advisor1.png","adviceTime":2002.000000094995,"trial_type":"jspsych-jas-present-advice-choice","trial_index":30,"time_elapsed":130020,"internal_node_id":"0.0-13.0-1.1"},{"startTime":130229.99999998137,"rt":993.0000000167638,"response":[{"id":0,"name":"Left","answer":26,"prompt":"Left","lastChangedTime":130824.00000002235},{"id":1,"name":"Right","answer":"50","prompt":"Right","lastChangedTime":null}],"trial_type":"canvas-sliders-response","trial_index":31,"time_elapsed":131014,"internal_node_id":"0.0-13.0-2.1"}],"confidenceCategory":0,"advisorAgrees":false,"advice":{"filePath":"assets/audio/voices/3/think_left.wav","string":"I think it was on the LEFT","loaded":true,"loading":true,"data":null,"buffer":{},"side":0,"confidence":0}},{"type":2,"typeName":"choice","block":2,"advisorId":3,"choice":[3,1],"answer":[0,0],"confidence":[25,4],"whichSide":1,"practice":false,"feedback":false,"warnings":[],"stimulusDrawTime":[132125],"stimulusOffTime":[899.9999999068677,null],"fixationDrawTime":[131625],"id":10,"dotDifference":15,"grid":{"dotCountL":185,"dotCountR":215,"gridWidth":20,"gridHeight":20,"dotWidth":2,"dotHeight":2,"paddingX":6,"paddingY":6,"gridL":[[1,0,0,0,0,0,1,0,1,1,0,1,1,1,0,0,0,0,1,1],[0,1,1,0,0,1,0,0,1,0,1,1,0,1,1,0,1,1,1,0],[1,0,1,0,0,0,0,1,0,1,1,0,1,0,1,0,1,0,1,0],[1,1,0,0,0,0,0,0,0,1,0,0,0,0,0,1,1,0,0,1],[0,0,0,0,1,0,0,0,1,0,0,1,1,0,1,0,0,1,1,0],[0,1,0,0,0,1,0,0,0,1,0,0,1,0,0,0,0,1,1,1],[1,1,1,0,1,1,0,1,0,1,1,1,1,0,0,1,0,1,0,0],[0,1,0,1,1,0,0,0,1,0,0,0,0,0,1,1,1,1,1,0],[1,1,1,1,1,0,0,0,0,1,0,0,1,0,0,0,0,0,0,1],[0,0,1,0,1,0,1,1,0,0,1,0,1,0,1,0,1,0,0,1],[0,0,0,1,1,0,0,0,1,1,1,0,0,1,0,0,1,1,0,0],[0,0,1,0,0,1,0,0,1,1,1,0,1,0,0,1,1,0,1,0],[1,0,1,0,1,1,1,0,0,1,0,1,1,0,1,0,0,0,1,0],[1,0,0,1,0,1,0,0,0,1,1,0,0,0,1,1,0,0,1,1],[1,0,0,1,1,0,1,1,0,0,1,1,1,0,1,0,0,0,1,0],[1,0,1,1,0,1,0,0,0,0,1,0,0,0,0,1,0,1,1,1],[0,1,0,1,1,0,1,0,0,0,0,0,0,1,0,0,1,1,1,1],[0,1,0,0,1,0,1,0,1,1,1,1,1,0,0,0,1,1,0,1],[1,1,1,1,1,1,0,0,0,1,0,1,1,1,1,0,0,1,1,1],[0,0,0,1,1,1,1,1,0,0,0,1,0,0,1,1,0,0,0,1]],"gridR":[[1,1,1,1,1,1,0,1,1,1,1,1,0,1,1,0,0,0,1,1],[1,0,1,0,1,1,0,1,0,1,1,0,0,0,1,0,1,1,0,1],[1,1,0,1,0,1,1,0,1,1,1,1,0,0,1,0,1,0,1,0],[1,1,1,0,0,1,1,1,0,0,0,1,0,0,1,1,1,1,0,1],[1,1,0,0,1,1,0,1,0,1,0,0,0,0,1,1,1,1,1,1],[0,1,1,0,1,0,1,0,1,0,0,1,0,1,0,1,0,1,0,0],[0,1,0,0,0,1,0,0,1,0,0,1,1,0,0,1,0,1,0,0],[1,1,1,0,0,0,0,0,1,0,0,1,1,0,0,1,0,1,0,1],[1,1,1,1,1,0,1,1,1,1,0,1,0,1,1,1,1,0,1,0],[0,1,0,0,1,1,1,0,0,0,0,1,0,0,1,1,0,0,1,0],[1,0,1,1,1,1,1,1,0,0,1,0,0,0,1,0,0,0,1,0],[1,0,0,0,1,0,1,1,1,1,1,1,1,1,1,0,0,1,0,1],[1,0,1,1,0,0,0,1,1,0,0,0,1,0,0,0,1,1,1,0],[1,0,1,0,0,1,0,1,0,1,0,0,0,0,1,0,0,0,1,1],[1,0,1,1,1,1,0,1,0,0,1,0,1,0,0,0,1,1,1,1],[1,0,1,1,1,1,1,0,0,1,1,0,1,1,1,0,1,1,0,1],[1,0,1,0,0,0,1,0,0,0,0,0,1,1,0,0,1,1,1,0],[1,1,1,1,0,1,0,0,1,1,0,1,0,1,0,0,0,0,0,0],[0,1,1,0,0,1,0,0,0,1,1,1,0,1,1,0,1,0,1,0],[1,0,0,0,1,0,1,1,1,1,1,0,1,0,1,0,1,1,0,1]],"displayWidth":172,"displayHeight":172,"spacing":100,"style":{"gridBorderColor":"#ffffff","gridBorderWidth":"3","dotColor":"#ffffff","dotLineWidth":"1"}},"pluginResponse":[{"startTime":131425.00000004657,"rt":2193.99999990128,"response":[{"id":0,"name":"Left","answer":25,"prompt":"Left","lastChangedTime":133186.99999991804},{"id":1,"name":"Right","answer":"50","prompt":"Right","lastChangedTime":null}],"stimulusOffTime":899.9999999068677,"trial_type":"canvas-sliders-response","trial_index":32,"time_elapsed":133410,"internal_node_id":"0.0-13.0-0.2"},{"choiceTime":1724.0000001620501,"choice":3,"totalTime":3726.0000000242144,"image":"http://localhost:8080/ExploringSocialMetacognition/assets/image/advisor2.png","adviceTime":2001.9999998621643,"trial_type":"jspsych-jas-present-advice-choice","trial_index":33,"time_elapsed":137137,"internal_node_id":"0.0-13.0-1.2"},{"startTime":137346.00000013597,"rt":1107.99999977462,"response":[{"id":0,"name":"Left","answer":4,"prompt":"Left","lastChangedTime":138006.00000005215},{"id":1,"name":"Right","answer":"50","prompt":"Right","lastChangedTime":null}],"trial_type":"canvas-sliders-response","trial_index":34,"time_elapsed":138245,"internal_node_id":"0.0-13.0-2.2"}],"confidenceCategory":0,"advisorAgrees":true,"advice":{"filePath":"assets/audio/voices/2/think_right.wav","string":"I think it was on the RIGHT","loaded":true,"loading":true,"data":null,"buffer":{},"side":1,"confidence":0}},{"type":1,"typeName":"force","block":2,"advisorId":3,"choice":[],"answer":[1,0],"confidence":[9,0],"whichSide":1,"practice":false,"feedback":false,"warnings":[],"stimulusDrawTime":[139354.99999998137],"stimulusOffTime":[901.0000000707805,null],"fixationDrawTime":[138854.99999998137],"id":11,"dotDifference":18,"grid":{"dotCountL":182,"dotCountR":218,"gridWidth":20,"gridHeight":20,"dotWidth":2,"dotHeight":2,"paddingX":6,"paddingY":6,"gridL":[[0,1,0,1,1,1,0,1,0,1,0,1,0,0,0,0,1,0,1,1],[0,0,0,1,0,1,0,0,0,1,1,0,1,0,0,1,0,1,0,1],[1,1,1,0,1,1,1,0,0,0,1,0,1,0,0,0,0,1,0,0],[1,0,0,1,1,1,1,1,0,0,0,1,0,0,0,1,1,1,1,1],[1,0,0,1,0,0,1,0,1,1,0,1,0,1,1,0,0,0,0,1],[0,0,1,0,1,1,1,0,0,0,0,1,0,0,0,0,0,1,1,0],[0,1,1,0,0,0,0,1,1,1,0,0,1,0,0,1,1,1,1,1],[0,0,0,0,0,0,0,0,0,1,1,0,1,0,0,0,1,1,0,1],[1,0,1,0,0,0,0,0,1,0,0,0,1,1,1,1,0,0,0,0],[0,0,1,0,1,0,0,1,1,1,0,0,1,1,1,0,0,1,1,1],[1,1,0,1,0,1,1,1,1,1,1,0,1,0,1,1,1,0,1,0],[0,1,1,1,1,0,0,0,0,0,1,1,0,0,1,1,1,1,0,0],[0,1,1,1,1,0,1,1,0,0,0,1,0,0,0,0,1,0,1,0],[0,0,0,0,0,0,1,1,1,1,0,1,0,1,0,1,1,0,0,0],[0,0,0,0,1,0,1,0,0,1,1,1,0,1,0,0,1,0,1,1],[1,0,1,1,0,1,0,0,0,0,0,0,0,1,0,0,0,0,1,1],[1,1,0,0,1,0,0,1,0,0,0,0,0,0,0,0,0,1,1,1],[1,1,0,1,1,0,0,1,0,1,0,1,1,0,0,1,0,1,1,0],[1,0,0,0,1,1,1,0,1,1,0,0,1,0,1,0,0,1,0,1],[1,0,0,0,0,0,0,1,0,1,0,1,0,0,0,1,0,1,0,1]],"gridR":[[1,0,1,0,0,1,0,1,1,1,0,1,1,1,1,1,1,0,1,1],[1,1,1,0,0,1,0,1,1,1,0,1,1,1,1,0,1,0,0,0],[1,0,0,0,1,1,0,0,1,0,1,1,0,1,0,1,0,1,1,1],[1,1,0,0,1,0,0,1,1,1,0,0,1,1,1,0,0,1,0,0],[0,0,1,0,1,1,1,1,0,1,0,1,1,1,0,1,0,0,0,1],[1,0,0,1,0,0,1,0,1,1,0,1,1,1,1,1,0,0,0,1],[1,1,1,1,1,1,0,0,1,0,0,0,1,0,0,0,0,1,0,1],[1,1,0,1,1,1,0,0,0,1,0,1,0,0,1,1,0,1,1,0],[1,1,0,1,0,1,1,1,1,1,1,1,0,0,0,0,1,0,1,0],[0,0,1,0,1,1,1,0,1,1,0,1,1,1,0,1,0,0,0,0],[0,1,0,1,1,0,1,0,0,0,0,0,1,0,0,1,1,0,1,0],[0,1,1,0,1,0,1,1,1,1,1,0,0,1,0,1,1,1,1,1],[0,0,0,1,1,0,0,0,1,1,1,0,1,1,0,0,0,0,1,0],[0,1,1,0,1,0,0,0,1,0,1,0,0,1,1,0,0,0,0,1],[0,1,1,1,1,0,1,0,1,1,0,0,1,1,0,1,0,1,1,0],[1,1,1,0,1,0,0,1,1,0,1,1,0,0,0,1,0,1,0,1],[0,0,0,0,1,0,1,1,1,1,1,1,1,0,1,0,1,0,1,0],[1,1,0,1,0,1,1,0,0,0,1,0,1,1,0,1,1,1,1,1],[0,0,1,1,1,0,0,1,1,1,1,1,0,1,1,0,1,1,1,1],[0,1,1,1,0,0,1,0,1,1,0,1,0,0,0,0,0,0,0,0]],"displayWidth":172,"displayHeight":172,"spacing":100,"style":{"gridBorderColor":"#ffffff","gridBorderWidth":"3","dotColor":"#ffffff","dotLineWidth":"1"}},"pluginResponse":[{"startTime":138655.00000002794,"rt":2955.000000074506,"response":[{"id":0,"name":"Left","answer":50,"prompt":"Left","lastChangedTime":null},{"id":1,"name":"Right","answer":"9","prompt":"Right","lastChangedTime":140895.00000001863}],"stimulusOffTime":901.0000000707805,"trial_type":"canvas-sliders-response","trial_index":35,"time_elapsed":141402,"internal_node_id":"0.0-13.0-0.3"},{"choiceTime":0,"choice":3,"totalTime":2003.000000026077,"image":"http://localhost:8080/ExploringSocialMetacognition/assets/image/advisor2.png","adviceTime":2003.000000026077,"trial_type":"jspsych-jas-present-advice-choice","trial_index":36,"time_elapsed":143406,"internal_node_id":"0.0-13.0-1.3"},{"startTime":143614.9999999907,"rt":2010.0000000093132,"response":[{"id":0,"name":"Left","answer":0,"prompt":"Left","lastChangedTime":145033.00000005402},{"id":1,"name":"Right","answer":"50","prompt":"Right","lastChangedTime":null}],"trial_type":"canvas-sliders-response","trial_index":37,"time_elapsed":145417,"internal_node_id":"0.0-13.0-2.3"}],"confidenceCategory":0,"advisorAgrees":false,"advice":{"filePath":"assets/audio/voices/2/think_left.wav","string":"I think it was on the LEFT","loaded":true,"loading":true,"data":null,"buffer":{},"side":0,"confidence":0}},{"type":2,"typeName":"choice","block":2,"advisorId":1,"choice":[3,1],"answer":[0,0],"confidence":[64,80],"whichSide":0,"practice":false,"feedback":false,"warnings":[],"stimulusDrawTime":[146526.00000007078],"stimulusOffTime":[899.9999999068677,null],"fixationDrawTime":[146026.00000007078],"id":12,"dotDifference":18,"grid":{"dotCountL":218,"dotCountR":182,"gridWidth":20,"gridHeight":20,"dotWidth":2,"dotHeight":2,"paddingX":6,"paddingY":6,"gridL":[[0,1,0,1,1,1,1,1,1,1,1,0,0,1,1,0,1,1,1,0],[0,0,1,0,1,0,1,1,1,1,1,1,1,0,1,1,0,1,1,0],[0,0,1,0,1,1,1,0,0,1,1,1,1,0,0,1,1,1,0,0],[0,1,1,1,1,1,1,0,1,0,1,1,0,0,0,1,0,0,1,0],[0,1,0,0,0,1,0,0,0,1,1,0,0,0,1,0,1,0,1,1],[1,1,1,1,0,0,1,0,1,1,1,0,1,1,1,1,1,1,1,1],[1,0,1,0,0,0,1,1,1,1,0,0,1,0,1,1,1,1,0,0],[0,0,0,0,0,0,0,1,1,1,1,0,1,0,0,1,0,1,1,1],[1,0,0,0,0,1,1,1,0,1,1,0,1,1,1,0,0,1,0,0],[0,1,1,1,1,0,1,0,1,0,1,0,1,0,0,0,1,1,1,0],[1,0,1,0,0,0,1,1,0,0,1,0,1,1,1,1,0,0,0,1],[1,0,1,0,0,1,1,1,1,1,0,1,0,1,1,1,0,1,1,1],[1,1,1,0,1,1,1,0,0,1,0,1,0,0,0,1,0,0,1,1],[0,1,1,0,1,0,0,0,1,0,0,1,1,0,0,0,1,0,0,0],[0,1,1,1,0,0,0,0,0,1,1,0,0,1,1,1,0,1,0,1],[0,0,0,0,1,1,0,1,0,1,1,1,1,1,0,1,1,1,1,1],[1,1,0,0,1,0,1,0,1,0,1,0,1,0,0,1,0,0,0,1],[0,1,1,0,1,0,1,0,1,0,0,0,0,0,1,1,1,1,0,1],[0,0,0,1,0,1,1,0,0,0,0,1,1,1,1,0,1,0,1,1],[1,0,0,0,1,0,1,1,0,0,1,1,0,0,1,1,0,1,1,0]],"gridR":[[0,0,0,0,0,0,0,1,0,0,1,1,1,1,0,1,0,1,0,0],[0,0,1,0,0,1,1,1,1,1,1,1,0,0,0,1,0,1,1,0],[1,0,1,1,1,1,0,1,1,1,0,0,0,1,1,0,0,1,1,1],[1,0,0,0,0,0,0,1,1,1,1,0,0,0,0,1,0,0,0,0],[0,0,1,0,1,0,1,1,0,0,0,0,0,1,0,1,0,1,0,0],[0,1,1,0,0,0,0,0,0,1,1,1,0,0,1,0,0,0,1,1],[0,0,1,1,0,0,0,0,1,1,0,0,0,0,0,1,1,1,0,1],[0,0,1,0,0,0,0,1,0,0,1,1,1,1,1,1,1,0,1,0],[1,0,0,0,0,1,0,0,0,1,1,0,0,0,1,0,0,1,0,0],[0,0,0,1,1,1,1,1,1,0,0,1,1,0,0,0,0,1,0,0],[1,0,0,1,1,0,1,1,0,1,1,1,1,0,1,0,0,1,0,0],[0,1,0,1,0,1,0,1,0,1,1,0,0,1,0,1,0,0,0,1],[0,0,0,1,0,0,0,0,0,1,0,1,1,0,0,0,0,1,1,0],[1,0,0,0,0,1,0,1,0,0,1,1,0,0,1,0,1,1,1,1],[1,1,1,0,0,0,0,1,1,0,1,1,0,1,1,0,1,1,1,1],[0,1,0,0,0,0,0,0,0,0,1,0,0,1,0,0,0,0,0,0],[1,0,1,0,0,1,1,0,0,0,1,0,1,0,1,0,0,1,1,1],[1,1,1,1,1,1,0,1,0,0,1,0,1,1,0,0,1,1,1,1],[1,0,0,0,0,0,1,0,1,1,0,0,0,1,0,1,1,1,0,1],[0,1,1,0,1,1,1,1,0,1,0,0,1,0,1,0,1,1,0,1]],"displayWidth":172,"displayHeight":172,"spacing":100,"style":{"gridBorderColor":"#ffffff","gridBorderWidth":"3","dotColor":"#ffffff","dotLineWidth":"1"}},"pluginResponse":[{"startTime":145826.00000011735,"rt":1932.9999999608845,"response":[{"id":0,"name":"Left","answer":64,"prompt":"Left","lastChangedTime":147347.99999999814},{"id":1,"name":"Right","answer":"50","prompt":"Right","lastChangedTime":null}],"stimulusOffTime":899.9999999068677,"trial_type":"canvas-sliders-response","trial_index":38,"time_elapsed":147550,"internal_node_id":"0.0-13.0-0.4"},{"choiceTime":1527.9999999329448,"choice":1,"totalTime":3530.0000000279397,"image":"http://localhost:8080/ExploringSocialMetacognition/assets/image/advisor1.png","adviceTime":2002.000000094995,"trial_type":"jspsych-jas-present-advice-choice","trial_index":39,"time_elapsed":151080,"internal_node_id":"0.0-13.0-1.4"},{"startTime":151290.00000003725,"rt":1379.9999998882413,"response":[{"id":0,"name":"Left","answer":80,"prompt":"Left","lastChangedTime":152069.0000001341},{"id":1,"name":"Right","answer":"50","prompt":"Right","lastChangedTime":null}],"trial_type":"canvas-sliders-response","trial_index":40,"time_elapsed":152461,"internal_node_id":"0.0-13.0-2.4"}],"confidenceCategory":1,"advisorAgrees":true,"advice":{"filePath":"assets/audio/voices/3/left_think.wav","string":"It was on the LEFT, I think","loaded":true,"loading":true,"data":null,"buffer":{},"side":0,"confidence":0}},{"type":1,"typeName":"force","block":2,"advisorId":1,"choice":[],"answer":[1,0],"confidence":[6,0],"whichSide":0,"practice":false,"feedback":false,"warnings":[],"stimulusDrawTime":[153574.00000002235],"stimulusOffTime":[902.0000000018626,null],"fixationDrawTime":[153074.00000002235],"id":13,"dotDifference":15,"grid":{"dotCountL":215,"dotCountR":185,"gridWidth":20,"gridHeight":20,"dotWidth":2,"dotHeight":2,"paddingX":6,"paddingY":6,"gridL":[[0,1,0,0,0,1,1,1,1,0,0,1,1,1,1,1,1,1,1,1],[1,1,0,1,1,1,0,1,0,0,0,0,1,0,0,1,0,0,0,0],[0,1,1,1,0,1,1,0,0,1,1,1,1,1,1,0,0,1,0,1],[0,1,1,1,1,1,1,1,1,1,0,0,0,0,1,0,0,0,1,1],[0,0,0,1,0,1,1,0,0,0,1,0,0,0,1,1,1,0,1,1],[1,1,1,0,1,0,0,1,0,0,0,1,1,0,1,1,0,1,1,0],[0,0,0,0,1,0,0,0,0,0,1,1,0,0,0,0,1,0,1,1],[0,0,0,1,0,0,0,1,1,1,1,0,1,0,1,0,0,1,0,0],[0,0,1,1,1,1,0,1,1,0,0,1,1,0,0,0,0,1,1,0],[0,0,1,1,0,0,1,1,0,0,0,0,0,1,0,0,0,0,0,1],[1,1,1,0,0,0,0,0,0,1,1,1,1,1,0,0,0,1,0,1],[1,1,0,0,1,0,0,0,1,0,0,1,0,1,1,1,1,1,1,1],[0,1,0,0,0,0,1,0,0,0,0,1,1,0,1,1,0,0,0,0],[1,1,0,1,1,1,0,0,1,0,1,0,1,1,0,1,0,1,1,0],[0,1,0,1,0,0,0,1,1,1,0,1,1,0,0,1,1,1,1,0],[0,1,0,1,0,1,0,1,1,1,1,0,1,1,1,0,1,0,1,1],[1,1,1,1,1,1,0,1,1,1,0,1,1,1,0,1,1,1,1,1],[1,0,1,1,0,0,1,1,0,0,1,1,1,1,1,0,1,1,1,1],[0,0,0,1,0,1,1,1,0,1,0,0,0,1,1,1,1,0,0,1],[1,1,0,0,1,1,0,1,1,1,1,0,0,1,1,1,1,1,0,0]],"gridR":[[1,1,0,0,1,0,0,1,0,0,0,0,1,1,0,1,0,1,0,0],[1,1,0,0,1,1,1,1,0,1,1,1,1,0,0,0,1,0,0,0],[1,0,0,0,0,1,0,0,0,0,0,1,0,1,0,1,0,0,0,1],[0,0,1,1,0,0,1,1,1,1,0,0,1,0,0,1,1,0,1,0],[0,0,0,0,1,0,0,1,1,1,0,0,0,1,1,0,1,0,0,0],[0,0,1,1,1,0,0,0,1,0,1,0,0,1,1,0,1,0,1,1],[0,1,1,0,0,0,1,0,0,1,0,0,1,0,0,0,1,1,1,1],[1,0,0,0,0,0,1,0,1,1,0,1,1,1,1,1,0,0,0,1],[0,0,0,0,0,0,0,1,0,0,0,1,1,0,1,1,0,1,0,0],[0,1,1,1,1,1,1,1,0,1,0,0,0,0,0,0,1,0,1,0],[1,0,0,0,0,1,1,1,0,1,1,1,1,1,0,1,1,1,0,0],[0,1,0,1,0,1,0,1,1,0,0,1,0,0,0,0,1,1,0,0],[0,0,0,1,0,0,1,1,0,0,0,0,1,0,0,1,0,0,1,0],[1,1,0,0,1,0,0,1,1,1,1,0,0,1,1,0,1,1,1,0],[0,0,1,1,1,1,0,0,0,1,1,0,0,0,1,1,1,1,0,1],[0,0,0,1,1,0,1,0,0,1,0,0,0,0,0,1,0,1,0,0],[1,1,0,1,1,0,1,1,0,0,1,0,1,1,0,0,0,1,0,1],[1,1,0,1,0,1,0,1,1,1,0,0,0,1,1,0,0,0,0,0],[1,1,0,0,0,1,1,1,0,1,0,1,0,1,1,1,0,0,0,0],[1,0,1,1,1,0,1,1,0,1,1,0,1,1,0,1,0,1,1,0]],"displayWidth":172,"displayHeight":172,"spacing":100,"style":{"gridBorderColor":"#ffffff","gridBorderWidth":"3","dotColor":"#ffffff","dotLineWidth":"1"}},"pluginResponse":[{"startTime":152871.99999997392,"rt":2341.9999999459833,"response":[{"id":0,"name":"Left","answer":50,"prompt":"Left","lastChangedTime":null},{"id":1,"name":"Right","answer":"6","prompt":"Right","lastChangedTime":154792.00000013225}],"stimulusOffTime":902.0000000018626,"trial_type":"canvas-sliders-response","trial_index":41,"time_elapsed":155005,"internal_node_id":"0.0-13.0-0.5"},{"choiceTime":0,"choice":1,"totalTime":2001.9999998621643,"image":"http://localhost:8080/ExploringSocialMetacognition/assets/image/advisor1.png","adviceTime":2001.9999998621643,"trial_type":"jspsych-jas-present-advice-choice","trial_index":42,"time_elapsed":157009,"internal_node_id":"0.0-13.0-1.5"},{"startTime":157218.0000001099,"rt":1382.9999999143183,"response":[{"id":0,"name":"Left","answer":0,"prompt":"Left","lastChangedTime":158127.000000095},{"id":1,"name":"Right","answer":"50","prompt":"Right","lastChangedTime":null}],"trial_type":"canvas-sliders-response","trial_index":43,"time_elapsed":158392,"internal_node_id":"0.0-13.0-2.5"}],"confidenceCategory":0,"advisorAgrees":true,"advice":{"filePath":"assets/audio/voices/3/think_left.wav","string":"I think it was on the LEFT","loaded":true,"loading":true,"data":null,"buffer":{},"side":0,"confidence":0}},{"type":2,"typeName":"choice","block":2,"advisorId":3,"choice":[3,1],"answer":[0,0],"confidence":[58,80],"whichSide":0,"practice":false,"feedback":false,"warnings":[],"stimulusDrawTime":[159502.000000095],"stimulusOffTime":[900.0000001396984,null],"fixationDrawTime":[159003.00000002608],"id":14,"dotDifference":18,"grid":{"dotCountL":218,"dotCountR":182,"gridWidth":20,"gridHeight":20,"dotWidth":2,"dotHeight":2,"paddingX":6,"paddingY":6,"gridL":[[0,0,0,0,1,1,1,1,1,1,1,1,0,0,0,0,0,1,0,1],[1,0,1,0,0,1,0,0,0,0,0,1,0,1,1,1,1,0,1,1],[1,0,0,0,1,0,1,1,0,0,0,1,1,0,0,1,1,0,1,1],[1,0,1,1,1,1,0,0,1,0,0,1,1,0,1,1,1,0,1,1],[0,1,1,0,0,0,1,0,1,1,0,1,0,1,0,1,1,1,1,0],[0,0,1,1,1,1,1,1,0,0,1,1,1,0,0,0,0,1,0,1],[1,0,1,1,1,0,0,1,0,0,1,0,1,0,1,0,0,1,1,0],[0,1,0,0,0,0,0,0,0,1,1,1,1,1,0,0,1,0,1,0],[1,1,0,0,1,1,0,0,0,0,1,0,1,1,1,1,0,1,1,1],[0,0,1,1,1,1,0,1,1,0,1,0,1,0,0,1,0,1,1,1],[0,0,0,1,1,1,1,0,0,0,0,1,1,0,0,0,1,0,0,1],[1,1,0,1,1,1,1,1,0,1,1,0,1,0,0,0,0,0,0,0],[1,0,1,1,1,1,1,0,1,1,1,0,0,0,1,1,0,1,1,1],[0,0,0,1,0,0,1,0,0,0,1,0,0,1,1,1,0,0,0,1],[1,1,1,1,1,1,0,0,0,0,1,1,1,1,1,0,1,0,0,1],[1,0,0,1,0,1,0,1,1,1,0,0,1,1,1,1,1,1,0,0],[1,1,1,1,1,0,1,1,0,0,1,1,0,0,0,1,1,1,0,1],[1,1,1,1,1,0,0,0,1,0,1,1,1,1,1,1,1,0,1,1],[1,1,0,0,0,0,0,1,1,1,1,0,0,0,1,1,1,0,0,1],[1,1,0,0,1,1,0,1,1,0,0,0,1,1,0,0,0,0,1,0]],"gridR":[[0,1,0,1,1,1,0,1,0,0,0,1,1,1,0,0,0,0,1,1],[1,0,0,0,1,0,0,0,1,0,1,0,0,0,0,1,1,0,0,0],[1,1,1,1,1,1,0,0,1,1,0,0,0,1,1,0,0,1,0,0],[0,1,1,0,1,1,1,0,0,1,0,0,1,0,0,0,0,0,0,0],[1,1,0,1,0,0,1,0,1,1,0,0,1,1,0,1,1,1,0,1],[1,0,1,1,1,1,0,0,0,1,0,0,1,0,0,0,1,0,0,0],[0,1,1,1,1,1,1,0,0,0,0,1,0,1,0,0,1,0,1,0],[1,1,0,0,0,0,0,1,0,1,1,0,0,0,0,0,0,1,0,0],[1,0,1,0,1,1,1,0,0,0,1,0,0,0,0,1,1,1,0,0],[0,1,1,0,1,1,0,0,0,0,0,0,1,1,1,0,1,1,0,0],[0,1,0,1,1,0,1,0,0,0,1,1,1,0,0,1,0,0,1,1],[1,1,0,0,1,0,1,0,0,0,0,1,0,1,0,0,0,0,0,0],[1,0,0,1,1,0,0,1,0,0,1,0,1,0,1,0,0,0,1,0],[0,1,0,0,1,1,0,0,1,1,1,0,1,0,0,0,0,1,0,1],[1,1,1,1,1,1,0,1,0,1,0,0,0,0,0,0,1,1,1,1],[0,1,0,0,0,0,0,1,1,0,0,1,0,1,1,0,1,0,1,0],[1,0,0,1,1,1,0,0,0,1,1,1,1,1,0,1,0,1,1,0],[0,1,0,1,1,1,1,0,1,1,0,0,0,0,1,1,0,1,1,1],[1,1,0,1,0,0,0,0,0,0,0,0,1,0,0,0,0,1,0,1],[1,1,1,0,0,1,1,0,0,1,1,1,0,0,1,0,0,0,1,1]],"displayWidth":172,"displayHeight":172,"spacing":100,"style":{"gridBorderColor":"#ffffff","gridBorderWidth":"3","dotColor":"#ffffff","dotLineWidth":"1"}},"pluginResponse":[{"startTime":158801.99999990873,"rt":2192.0000000391155,"response":[{"id":0,"name":"Left","answer":58,"prompt":"Left","lastChangedTime":160577.00000004843},{"id":1,"name":"Right","answer":"50","prompt":"Right","lastChangedTime":null}],"stimulusOffTime":900.0000001396984,"trial_type":"canvas-sliders-response","trial_index":44,"time_elapsed":160785,"internal_node_id":"0.0-13.0-0.6"},{"choiceTime":977.9999998863786,"choice":3,"totalTime":2980.9999999124557,"image":"http://localhost:8080/ExploringSocialMetacognition/assets/image/advisor2.png","adviceTime":2003.000000026077,"trial_type":"jspsych-jas-present-advice-choice","trial_index":45,"time_elapsed":163767,"internal_node_id":"0.0-13.0-1.6"},{"startTime":163976.9999999553,"rt":1545.0000001583248,"response":[{"id":0,"name":"Left","answer":80,"prompt":"Left","lastChangedTime":164745.00000011176},{"id":1,"name":"Right","answer":"50","prompt":"Right","lastChangedTime":null}],"trial_type":"canvas-sliders-response","trial_index":46,"time_elapsed":165314,"internal_node_id":"0.0-13.0-2.6"}],"confidenceCategory":1,"advisorAgrees":true,"advice":{"filePath":"assets/audio/voices/2/left_think.wav","string":"It was on the LEFT, I think","loaded":true,"loading":true,"data":null,"buffer":{},"side":0,"confidence":0}},{"type":2,"typeName":"choice","block":2,"advisorId":1,"choice":[1,3],"answer":[0,0],"confidence":[95,95],"whichSide":0,"practice":false,"feedback":false,"warnings":[],"stimulusDrawTime":[166425.00000004657],"stimulusOffTime":[899.9999999068677,null],"fixationDrawTime":[165925.99999997765],"id":15,"dotDifference":18,"grid":{"dotCountL":218,"dotCountR":182,"gridWidth":20,"gridHeight":20,"dotWidth":2,"dotHeight":2,"paddingX":6,"paddingY":6,"gridL":[[0,0,1,0,1,0,1,0,0,1,1,0,1,1,1,1,1,0,1,0],[1,0,0,0,0,1,1,0,1,1,1,1,1,0,1,0,1,1,1,1],[1,0,1,1,0,0,0,1,1,0,0,1,1,0,1,1,0,0,0,0],[0,0,0,0,0,0,1,1,1,0,1,0,0,0,0,1,1,0,1,0],[0,0,0,0,1,1,1,1,0,0,1,0,1,0,1,1,1,1,1,0],[1,0,1,0,0,1,1,1,1,0,1,1,0,0,0,1,0,0,1,0],[0,1,0,1,1,1,0,0,0,1,0,1,1,0,1,1,0,0,1,1],[1,1,0,0,0,1,0,1,1,0,1,0,0,1,1,1,0,1,1,1],[1,1,1,1,1,1,1,0,0,1,1,0,1,0,1,1,0,0,1,1],[1,0,1,1,1,0,1,1,1,0,1,1,0,1,1,0,1,0,1,0],[0,1,0,1,0,1,0,0,1,0,1,1,1,0,1,0,1,0,1,0],[0,0,1,0,0,0,0,1,0,1,0,1,1,1,1,0,1,1,1,0],[0,0,1,1,0,0,0,0,1,1,0,1,1,0,1,1,0,1,1,0],[1,0,0,1,1,0,1,0,0,0,1,0,1,0,1,0,0,1,1,0],[0,0,0,1,1,0,0,0,1,1,1,0,1,1,0,1,0,1,1,0],[0,1,1,0,0,1,1,1,1,1,0,0,0,1,0,1,1,1,0,0],[1,0,0,1,1,1,0,1,1,0,0,1,1,1,0,1,1,0,1,0],[0,1,0,1,0,0,0,0,1,1,1,1,0,1,1,0,0,1,1,1],[0,1,1,1,1,1,1,1,0,0,0,1,0,0,1,0,0,1,0,0],[1,0,1,1,1,1,1,1,0,1,1,0,0,0,0,1,1,1,1,1]],"gridR":[[0,1,1,1,0,0,1,1,0,0,1,1,0,0,0,0,1,0,0,0],[0,0,1,0,1,1,1,1,1,0,0,0,0,0,0,0,1,0,1,1],[0,1,0,1,0,0,1,0,0,0,1,1,1,0,0,1,0,0,0,1],[0,0,1,1,0,0,1,1,1,1,0,0,1,1,0,0,0,1,0,0],[1,0,1,0,1,0,0,1,0,1,1,1,0,1,1,0,1,1,1,0],[1,1,1,0,1,0,0,0,1,1,0,1,0,1,1,0,0,0,0,1],[1,0,1,1,0,0,1,1,1,1,0,0,0,1,1,0,1,0,0,0],[1,1,0,0,0,0,1,1,0,1,1,1,0,0,0,0,0,1,0,1],[1,1,0,1,1,1,0,0,1,0,1,1,0,1,1,1,0,1,1,1],[1,1,0,0,0,0,0,1,0,0,0,0,1,0,0,0,0,1,0,1],[0,0,1,0,1,0,1,1,1,0,1,1,0,0,1,0,0,0,1,0],[0,0,1,1,0,0,0,1,0,0,0,0,1,1,0,1,0,0,0,0],[1,0,0,1,1,0,1,1,0,1,0,0,1,0,0,1,1,1,1,0],[1,1,1,1,0,0,1,1,1,1,1,0,0,1,1,1,1,0,1,0],[1,1,0,1,0,0,0,1,0,1,0,0,0,0,0,1,0,0,0,0],[0,0,1,0,0,1,1,0,1,0,1,0,0,0,1,0,0,0,1,0],[1,0,1,0,1,0,1,1,0,1,1,1,0,1,0,1,1,0,0,0],[1,1,0,0,0,0,1,0,0,1,0,1,0,0,1,0,1,0,0,0],[0,0,0,1,0,0,1,0,1,1,1,0,0,0,0,0,0,1,1,0],[0,1,1,1,0,0,0,1,0,0,0,0,1,1,0,1,0,1,0,1]],"displayWidth":172,"displayHeight":172,"spacing":100,"style":{"gridBorderColor":"#ffffff","gridBorderWidth":"3","dotColor":"#ffffff","dotLineWidth":"1"}},"pluginResponse":[{"startTime":165725.00000009313,"rt":2442.9999999701977,"response":[{"id":0,"name":"Left","answer":95,"prompt":"Left","lastChangedTime":167588.9999999199},{"id":1,"name":"Right","answer":"50","prompt":"Right","lastChangedTime":null}],"stimulusOffTime":899.9999999068677,"trial_type":"canvas-sliders-response","trial_index":47,"time_elapsed":167959,"internal_node_id":"0.0-13.0-0.7"},{"choiceTime":1008.9999998454005,"choice":1,"totalTime":3010.9999999403954,"image":"http://localhost:8080/ExploringSocialMetacognition/assets/image/advisor1.png","adviceTime":2002.000000094995,"trial_type":"jspsych-jas-present-advice-choice","trial_index":48,"time_elapsed":170970,"internal_node_id":"0.0-13.0-1.7"},{"startTime":171179.9999999348,"rt":2114.0000000596046,"response":[{"id":0,"name":"Left","answer":95,"prompt":"Left","lastChangedTime":172625.99999993108},{"id":1,"name":"Right","answer":"50","prompt":"Right","lastChangedTime":null}],"trial_type":"canvas-sliders-response","trial_index":49,"time_elapsed":173085,"internal_node_id":"0.0-13.0-2.7"}],"confidenceCategory":2,"advisorAgrees":false,"advice":{"filePath":"assets/audio/voices/3/think_right.wav","string":"I think it was on the RIGHT","loaded":true,"loading":true,"data":null,"buffer":{},"side":1,"confidence":0}},{"type":1,"typeName":"force","block":2,"advisorId":3,"choice":[],"answer":[0,0],"confidence":[79,100],"whichSide":0,"practice":false,"feedback":false,"warnings":[],"stimulusDrawTime":[174195.99999999627],"stimulusOffTime":[900.9999998379499,null],"fixationDrawTime":[173695.99999999627],"id":16,"dotDifference":15,"grid":{"dotCountL":215,"dotCountR":185,"gridWidth":20,"gridHeight":20,"dotWidth":2,"dotHeight":2,"paddingX":6,"paddingY":6,"gridL":[[1,1,0,1,1,1,0,0,0,1,1,0,1,0,0,1,1,1,0,1],[0,1,1,1,1,1,0,0,1,1,0,1,1,0,1,1,1,1,0,1],[0,1,1,1,0,0,1,0,1,1,0,0,1,1,0,1,0,1,0,1],[0,0,1,1,0,1,1,1,1,1,1,1,1,0,0,0,0,0,1,0],[0,1,0,1,1,0,1,1,1,0,1,0,0,1,1,0,0,0,1,0],[1,1,1,1,1,0,0,0,1,1,0,0,0,1,0,0,0,0,0,0],[1,1,1,0,0,0,1,1,1,1,0,1,1,1,1,0,0,0,0,1],[0,1,1,0,0,0,0,1,0,1,1,1,1,1,0,0,1,0,1,1],[1,0,1,1,1,1,1,0,1,0,0,1,0,1,0,0,0,1,1,1],[1,1,1,1,0,0,0,1,0,0,0,1,0,0,1,0,1,0,1,0],[0,1,1,1,0,0,0,0,1,0,1,1,1,1,1,1,0,1,0,1],[1,0,0,1,1,0,0,0,0,0,1,1,1,1,1,0,1,1,1,0],[0,0,0,0,1,1,1,0,0,1,0,1,0,0,0,1,0,0,1,1],[0,1,0,0,0,0,1,0,1,1,0,0,1,1,0,1,1,0,0,1],[1,1,1,1,1,0,0,1,0,0,1,1,0,1,0,1,0,0,1,1],[1,1,1,0,0,1,0,1,1,1,0,1,1,1,1,1,1,1,0,1],[0,1,1,0,0,1,0,1,0,1,1,1,0,0,1,0,0,1,1,1],[0,1,1,0,0,1,1,0,0,0,0,0,1,0,0,1,1,1,0,1],[0,0,1,0,1,1,0,0,0,0,1,0,1,0,1,0,0,0,0,0],[1,1,0,0,1,1,1,0,1,1,1,1,0,0,0,0,1,1,1,0]],"gridR":[[0,0,0,0,0,0,0,1,0,0,1,1,0,1,1,1,1,0,0,0],[1,0,1,0,1,0,0,0,1,1,1,1,1,1,0,0,1,1,0,1],[0,0,0,0,1,1,0,1,1,1,1,1,1,1,0,1,1,0,0,0],[1,1,0,0,1,1,0,0,0,0,1,0,0,0,0,1,1,0,0,0],[1,0,0,0,0,1,0,1,1,0,0,0,0,0,0,1,0,0,1,0],[0,1,1,1,1,1,1,0,0,1,0,0,0,1,1,1,0,1,0,0],[0,0,0,1,1,0,1,1,1,0,0,1,0,1,0,1,1,1,0,1],[1,1,1,1,1,1,1,1,0,1,1,0,0,1,0,1,0,0,0,0],[0,1,0,1,0,0,1,0,1,1,0,1,1,0,0,0,0,0,1,1],[0,0,0,0,1,1,0,0,1,0,0,0,0,1,0,0,0,1,0,0],[0,1,1,0,1,0,0,1,0,0,1,0,1,1,1,0,0,0,1,0],[0,1,0,1,1,1,0,0,0,1,1,1,0,0,0,1,1,1,0,1],[0,0,1,0,1,0,1,1,1,0,0,0,0,1,1,0,0,0,0,0],[1,0,1,1,0,0,1,0,0,1,1,1,0,1,1,0,0,1,1,0],[0,1,0,0,0,1,1,0,0,0,0,1,1,0,0,1,1,0,1,0],[0,0,1,1,1,1,1,1,1,0,1,0,1,0,0,1,0,1,0,0],[1,1,1,0,0,1,0,0,1,1,0,1,1,0,0,0,1,0,0,0],[0,0,0,0,1,0,0,1,0,0,1,0,1,0,0,1,0,1,1,1],[1,1,0,0,1,1,0,0,1,0,1,0,0,0,1,1,1,0,1,1],[0,0,0,1,0,0,0,0,0,0,1,1,1,1,1,1,1,0,0,1]],"displayWidth":172,"displayHeight":172,"spacing":100,"style":{"gridBorderColor":"#ffffff","gridBorderWidth":"3","dotColor":"#ffffff","dotLineWidth":"1"}},"pluginResponse":[{"startTime":173495.00000011176,"rt":2102.9999998863786,"response":[{"id":0,"name":"Left","answer":79,"prompt":"Left","lastChangedTime":175155.99999995902},{"id":1,"name":"Right","answer":"50","prompt":"Right","lastChangedTime":null}],"stimulusOffTime":900.9999998379499,"trial_type":"canvas-sliders-response","trial_index":50,"time_elapsed":175389,"internal_node_id":"0.0-13.0-0.8"},{"choiceTime":0,"choice":3,"totalTime":2002.000000094995,"image":"http://localhost:8080/ExploringSocialMetacognition/assets/image/advisor2.png","adviceTime":2002.000000094995,"trial_type":"jspsych-jas-present-advice-choice","trial_index":51,"time_elapsed":177392,"internal_node_id":"0.0-13.0-1.8"},{"startTime":177601.9999999553,"rt":1208.0000001005828,"response":[{"id":0,"name":"Left","answer":100,"prompt":"Left","lastChangedTime":178253.00000002608},{"id":1,"name":"Right","answer":"50","prompt":"Right","lastChangedTime":null}],"trial_type":"canvas-sliders-response","trial_index":52,"time_elapsed":178601,"internal_node_id":"0.0-13.0-2.8"}],"confidenceCategory":2,"advisorAgrees":true,"advice":{"filePath":"assets/audio/voices/2/left_think.wav","string":"It was on the LEFT, I think","loaded":true,"loading":true,"data":null,"buffer":{},"side":0,"confidence":0}},{"type":1,"typeName":"force","block":2,"advisorId":1,"choice":[],"answer":[1,1],"confidence":[3,19],"whichSide":1,"practice":false,"feedback":false,"warnings":[],"stimulusDrawTime":[179711.00000012666],"stimulusOffTime":[900.0000001396984,null],"fixationDrawTime":[179212.00000005774],"id":17,"dotDifference":12,"grid":{"dotCountL":188,"dotCountR":212,"gridWidth":20,"gridHeight":20,"dotWidth":2,"dotHeight":2,"paddingX":6,"paddingY":6,"gridL":[[1,0,1,0,0,1,1,0,1,1,0,1,0,0,0,1,1,1,1,0],[0,0,1,1,1,1,1,0,1,0,0,1,0,0,1,1,1,1,0,0],[1,1,0,0,0,0,1,1,0,1,0,0,1,0,1,1,0,1,0,0],[0,1,1,1,0,1,1,0,0,0,0,1,0,0,1,0,0,1,0,0],[1,0,1,1,0,1,0,0,1,0,0,0,1,0,0,0,0,0,0,0],[0,1,0,0,1,0,0,1,0,0,0,0,1,0,1,0,0,1,0,1],[0,1,1,1,0,1,1,0,1,0,1,0,0,0,0,1,0,0,0,1],[1,1,0,0,0,0,0,0,1,1,1,0,1,1,1,0,0,0,1,0],[1,0,0,1,0,1,0,1,1,0,1,1,1,0,0,1,1,0,0,1],[1,1,1,0,0,0,1,1,0,1,1,1,1,1,1,0,1,0,0,1],[1,1,0,1,1,1,0,1,0,0,1,0,1,1,0,1,0,1,1,0],[1,1,0,1,0,0,0,0,1,1,1,0,1,0,1,1,0,0,1,1],[1,1,0,0,1,0,1,0,1,0,0,1,1,0,0,1,1,0,1,0],[1,1,0,1,1,0,1,1,0,0,0,1,0,1,0,0,0,0,1,0],[1,0,0,1,1,0,1,0,1,1,0,1,1,0,0,1,0,0,1,0],[0,0,0,1,0,1,0,1,1,0,0,0,0,0,1,1,0,1,0,1],[0,0,1,1,0,0,0,0,0,0,1,0,1,1,1,0,1,0,0,0],[1,0,0,0,1,1,1,1,0,0,0,1,1,1,1,0,0,1,0,1],[1,0,1,0,1,0,1,0,0,0,0,0,1,0,0,0,0,1,0,1],[0,1,1,0,1,0,0,1,1,0,0,0,1,0,0,0,0,1,1,1]],"gridR":[[0,0,0,1,1,0,0,0,1,0,1,0,1,0,1,0,1,0,1,1],[0,0,0,1,1,0,1,0,1,0,0,0,1,0,1,1,1,0,1,1],[1,0,1,0,1,0,0,0,1,0,0,0,0,1,0,1,0,1,1,0],[1,1,1,0,1,1,0,0,1,1,1,0,0,1,1,0,0,1,1,0],[1,1,0,0,0,0,0,0,0,1,1,0,1,1,1,0,0,1,1,0],[1,0,0,1,1,0,1,1,0,1,1,0,1,1,0,1,1,1,1,0],[1,0,1,0,1,0,1,1,1,0,0,1,1,1,0,1,0,0,0,0],[0,1,1,0,0,0,1,1,0,0,1,1,0,0,1,1,1,1,0,0],[1,1,0,1,1,1,0,0,1,1,0,1,1,1,1,1,0,0,0,1],[1,0,0,1,1,1,1,1,0,1,1,0,0,1,1,1,0,0,1,0],[1,1,1,0,1,1,1,0,0,0,0,0,0,1,1,1,0,0,0,0],[0,0,1,1,1,1,1,0,1,1,1,0,0,1,0,0,1,0,1,1],[1,1,1,0,1,1,0,1,1,0,0,1,1,1,1,0,1,0,0,1],[1,0,1,0,1,1,0,0,0,1,0,1,0,0,1,1,0,1,0,1],[0,0,1,0,0,1,0,0,1,0,1,1,0,1,1,0,1,0,1,0],[1,0,0,0,0,1,1,0,1,0,1,1,0,1,1,1,1,0,1,1],[0,1,0,0,1,1,0,1,1,1,1,1,1,0,0,0,0,0,1,1],[1,0,0,0,0,0,0,0,0,1,1,1,1,0,1,0,0,1,1,0],[0,1,1,1,1,1,1,0,0,0,1,1,1,0,1,0,1,0,1,0],[1,1,0,0,1,0,0,1,1,0,1,0,0,1,1,0,1,0,0,1]],"displayWidth":172,"displayHeight":172,"spacing":100,"style":{"gridBorderColor":"#ffffff","gridBorderWidth":"3","dotColor":"#ffffff","dotLineWidth":"1"}},"pluginResponse":[{"startTime":179010.9999999404,"rt":2347.000000067055,"response":[{"id":0,"name":"Left","answer":50,"prompt":"Left","lastChangedTime":null},{"id":1,"name":"Right","answer":"3","prompt":"Right","lastChangedTime":180888.0000000354}],"stimulusOffTime":900.0000001396984,"trial_type":"canvas-sliders-response","trial_index":53,"time_elapsed":181150,"internal_node_id":"0.0-13.0-0.9"},{"choiceTime":0,"choice":1,"totalTime":2003.000000026077,"image":"http://localhost:8080/ExploringSocialMetacognition/assets/image/advisor1.png","adviceTime":2003.000000026077,"trial_type":"jspsych-jas-present-advice-choice","trial_index":54,"time_elapsed":183153,"internal_node_id":"0.0-13.0-1.9"},{"startTime":183363.00000012852,"rt":1111.9999999646097,"response":[{"id":0,"name":"Left","answer":50,"prompt":"Left","lastChangedTime":null},{"id":1,"name":"Right","answer":"19","prompt":"Right","lastChangedTime":183986.00000003353}],"trial_type":"canvas-sliders-response","trial_index":55,"time_elapsed":184267,"internal_node_id":"0.0-13.0-2.9"}],"confidenceCategory":0,"advisorAgrees":true,"advice":{"filePath":"assets/audio/voices/3/think_right.wav","string":"I think it was on the RIGHT","loaded":true,"loading":true,"data":null,"buffer":{},"side":1,"confidence":0}},{"type":2,"typeName":"choice","block":2,"advisorId":3,"choice":[3,1],"answer":[0,0],"confidence":[22,48],"whichSide":0,"practice":false,"feedback":false,"warnings":[],"stimulusDrawTime":[185378.99999995716],"stimulusOffTime":[900.0000001396984,null],"fixationDrawTime":[184877.000000095],"id":18,"dotDifference":9,"grid":{"dotCountL":209,"dotCountR":191,"gridWidth":20,"gridHeight":20,"dotWidth":2,"dotHeight":2,"paddingX":6,"paddingY":6,"gridL":[[0,1,1,0,0,0,1,0,1,0,0,0,1,0,0,1,0,0,0,1],[1,1,1,0,0,0,0,0,1,1,1,0,1,0,0,1,1,1,1,0],[0,0,1,0,1,1,1,1,1,0,1,1,0,0,0,0,0,1,1,0],[1,0,0,0,1,1,0,1,0,1,1,1,0,1,1,0,0,0,1,0],[1,1,0,1,0,0,1,1,1,1,0,1,1,1,1,0,0,0,0,1],[1,0,0,0,0,0,0,1,1,0,1,0,0,0,1,0,0,0,1,0],[1,0,0,0,0,1,0,1,0,1,0,1,0,0,1,0,1,1,0,0],[0,0,1,1,0,1,0,1,1,1,0,0,1,1,1,1,1,1,0,1],[0,1,0,0,1,0,1,0,1,1,0,0,0,0,0,1,1,0,1,0],[1,0,1,0,0,1,1,1,0,1,1,1,0,1,0,0,1,1,0,1],[0,0,0,1,0,1,1,0,1,1,1,1,0,1,1,1,0,1,1,1],[0,0,0,0,0,1,1,1,0,1,1,0,0,1,0,1,1,1,0,1],[1,0,1,0,1,1,0,1,1,1,0,0,1,1,0,0,1,0,1,1],[0,1,1,0,1,0,0,0,0,1,1,1,0,0,0,0,1,0,0,0],[0,0,1,1,0,1,0,1,1,0,1,1,1,1,0,0,1,0,0,0],[1,1,1,1,0,1,1,1,1,0,1,1,0,1,1,1,1,1,0,1],[1,0,1,1,0,1,0,1,0,1,0,1,1,0,1,1,0,1,0,0],[1,1,1,0,0,1,1,1,0,1,1,0,0,0,0,1,0,0,1,1],[1,0,1,1,1,1,1,0,0,1,0,1,0,0,0,1,0,1,0,0],[1,0,0,1,0,1,1,0,1,0,1,1,1,1,1,1,0,0,0,1]],"gridR":[[0,0,0,1,0,1,0,0,0,0,0,0,0,0,1,1,0,1,1,1],[1,0,1,0,1,1,1,0,0,0,1,1,0,0,0,0,1,0,1,1],[1,0,0,1,1,0,0,1,1,1,1,0,0,1,0,1,1,0,0,1],[1,1,0,1,0,0,0,0,1,0,1,0,1,1,0,0,1,1,1,1],[0,0,0,1,1,0,1,0,0,1,1,1,0,1,0,1,0,1,1,0],[0,0,0,1,1,0,1,0,1,1,1,1,1,0,0,0,0,0,1,0],[0,0,1,1,1,1,1,0,0,1,0,1,0,1,0,1,0,1,1,0],[1,1,1,0,1,1,0,1,0,1,0,1,0,0,0,0,0,0,0,0],[1,1,0,1,1,1,1,1,1,1,0,0,1,0,1,1,0,1,0,0],[1,1,0,0,0,0,1,1,1,1,1,0,0,1,0,0,0,0,0,0],[1,1,0,0,1,0,0,0,0,1,0,0,0,1,1,1,1,0,1,1],[0,1,1,1,1,0,0,1,1,0,0,1,1,1,1,1,0,0,0,1],[0,0,0,1,0,1,0,0,0,1,1,0,0,1,0,0,0,1,1,0],[0,0,1,0,0,0,0,0,0,0,0,1,1,1,1,0,1,1,1,1],[0,1,0,1,0,0,0,0,0,0,0,1,1,1,0,0,0,0,0,0],[1,0,0,1,1,1,0,1,1,0,0,1,0,1,1,1,1,0,1,0],[1,1,0,0,0,1,0,1,1,0,0,0,0,1,0,0,1,0,0,1],[0,1,1,1,1,1,0,1,1,0,1,0,0,0,0,1,0,0,1,1],[1,0,1,0,0,0,0,1,0,1,0,1,1,1,0,0,0,1,1,0],[0,1,0,1,0,0,0,0,1,1,0,0,0,1,0,1,1,1,1,1]],"displayWidth":172,"displayHeight":172,"spacing":100,"style":{"gridBorderColor":"#ffffff","gridBorderWidth":"3","dotColor":"#ffffff","dotLineWidth":"1"}},"pluginResponse":[{"startTime":184676.99999990873,"rt":2588.000000221655,"response":[{"id":0,"name":"Left","answer":22,"prompt":"Left","lastChangedTime":186823.00000009127},{"id":1,"name":"Right","answer":"50","prompt":"Right","lastChangedTime":null}],"stimulusOffTime":900.0000001396984,"trial_type":"canvas-sliders-response","trial_index":56,"time_elapsed":187057,"internal_node_id":"0.0-13.0-0.10"},{"choiceTime":1376.9999998621643,"choice":3,"totalTime":3378.999999957159,"image":"http://localhost:8080/ExploringSocialMetacognition/assets/image/advisor2.png","adviceTime":2002.000000094995,"trial_type":"jspsych-jas-present-advice-choice","trial_index":57,"time_elapsed":190436,"internal_node_id":"0.0-13.0-1.10"},{"startTime":190645.00000001863,"rt":1334.000000031665,"response":[{"id":0,"name":"Left","answer":48,"prompt":"Left","lastChangedTime":191554.00000000373},{"id":1,"name":"Right","answer":"50","prompt":"Right","lastChangedTime":null}],"trial_type":"canvas-sliders-response","trial_index":58,"time_elapsed":191770,"internal_node_id":"0.0-13.0-2.10"}],"confidenceCategory":0,"advisorAgrees":true,"advice":{"filePath":"assets/audio/voices/2/left_think.wav","string":"It was on the LEFT, I think","loaded":true,"loading":true,"data":null,"buffer":{},"side":0,"confidence":0}},{"type":1,"typeName":"force","block":2,"advisorId":1,"choice":[],"answer":[0,0],"confidence":[11,36],"whichSide":1,"practice":false,"feedback":false,"warnings":[],"stimulusDrawTime":[192880.00000012107],"stimulusOffTime":[901.0000000707805,null],"fixationDrawTime":[192381.00000005215],"id":19,"dotDifference":6,"grid":{"dotCountL":194,"dotCountR":206,"gridWidth":20,"gridHeight":20,"dotWidth":2,"dotHeight":2,"paddingX":6,"paddingY":6,"gridL":[[0,0,0,0,0,0,1,1,0,1,0,0,1,1,0,0,0,1,1,0],[1,1,0,1,1,0,1,0,0,0,1,1,0,1,1,1,0,0,0,1],[1,1,1,0,1,1,0,1,0,0,0,0,1,0,0,1,1,1,1,0],[0,0,0,0,0,0,0,0,1,0,1,1,1,0,0,0,1,1,0,1],[1,1,0,0,0,1,0,0,0,1,1,0,1,1,0,0,0,1,1,0],[1,0,0,0,1,0,0,0,1,1,0,0,1,1,1,1,0,1,1,1],[0,1,0,1,0,0,1,0,0,0,1,1,0,0,1,1,0,0,1,1],[1,0,0,1,0,0,1,0,0,1,0,1,0,1,0,1,1,1,1,0],[1,0,0,0,0,1,1,1,0,1,1,1,1,0,0,1,1,1,0,1],[0,0,0,0,0,1,1,1,1,1,0,1,1,1,0,1,0,1,0,1],[1,1,1,1,1,0,1,1,0,1,0,0,0,0,0,1,0,0,1,0],[0,0,1,1,0,0,0,0,0,0,0,0,1,0,1,0,1,1,1,0],[0,1,1,0,1,0,1,1,0,1,0,0,1,1,1,0,1,1,1,1],[0,0,0,1,1,1,1,1,1,1,1,0,1,0,1,0,0,1,1,0],[1,0,1,1,0,1,0,0,0,1,1,1,1,1,1,1,0,0,0,0],[0,1,1,1,0,0,0,0,1,1,0,0,1,1,1,0,0,1,1,1],[0,0,0,0,1,0,0,1,0,0,1,0,0,1,0,0,1,0,1,0],[1,0,1,0,1,1,0,1,0,0,0,1,0,1,1,0,0,0,1,0],[1,0,0,0,1,1,0,0,0,1,0,1,1,0,0,0,0,0,1,1],[0,0,1,0,0,1,0,1,1,0,1,0,1,1,1,0,0,0,0,1]],"gridR":[[0,1,1,1,1,1,0,1,1,1,0,0,0,1,0,0,0,1,1,1],[1,1,0,0,1,0,1,0,0,1,1,1,0,1,1,1,1,1,0,1],[1,0,0,0,0,0,0,1,0,1,0,1,0,0,0,1,0,1,0,1],[0,1,1,1,1,1,0,1,0,0,0,1,1,0,0,1,0,1,0,1],[1,1,0,1,0,0,0,1,0,0,1,1,1,0,1,0,0,1,0,0],[1,0,1,1,0,0,0,1,1,1,1,1,0,0,0,0,0,0,0,0],[0,0,1,0,0,1,1,0,0,0,1,0,1,0,1,0,0,0,0,1],[1,1,0,0,0,0,0,0,1,1,1,0,0,1,1,1,0,1,1,1],[1,1,1,1,1,1,0,0,0,0,1,1,0,0,0,0,1,1,1,1],[1,0,0,0,1,1,1,1,0,0,1,0,0,0,0,0,1,0,1,0],[0,0,1,0,1,1,1,1,1,0,0,1,1,1,0,1,0,0,0,0],[1,0,0,1,1,0,0,1,0,0,1,1,0,0,1,0,0,1,1,1],[0,1,1,1,1,1,1,1,1,0,1,0,1,1,1,0,1,1,1,1],[0,0,0,0,1,0,1,1,1,0,1,0,1,1,1,0,1,0,1,0],[0,0,0,1,0,1,0,1,1,1,1,1,1,0,1,1,0,1,0,0],[1,0,0,0,0,1,1,1,0,1,0,1,1,1,0,1,0,0,1,0],[0,1,1,1,0,0,1,0,0,1,0,1,0,1,0,0,1,0,0,0],[1,1,1,0,1,0,1,1,1,0,0,1,0,0,0,1,0,1,1,0],[0,1,1,0,1,0,1,0,1,0,0,1,0,1,0,1,0,1,1,0],[1,1,0,0,0,1,1,1,1,1,0,1,0,1,0,1,0,0,1,1]],"displayWidth":172,"displayHeight":172,"spacing":100,"style":{"gridBorderColor":"#ffffff","gridBorderWidth":"3","dotColor":"#ffffff","dotLineWidth":"1"}},"pluginResponse":[{"startTime":192179.9999999348,"rt":2168.00000006333,"response":[{"id":0,"name":"Left","answer":11,"prompt":"Left","lastChangedTime":193885.0000000093},{"id":1,"name":"Right","answer":"50","prompt":"Right","lastChangedTime":null}],"stimulusOffTime":901.0000000707805,"trial_type":"canvas-sliders-response","trial_index":59,"time_elapsed":194140,"internal_node_id":"0.0-13.0-0.11"},{"choiceTime":0,"choice":1,"totalTime":2001.9999998621643,"image":"http://localhost:8080/ExploringSocialMetacognition/assets/image/advisor1.png","adviceTime":2001.9999998621643,"trial_type":"jspsych-jas-present-advice-choice","trial_index":60,"time_elapsed":196143,"internal_node_id":"0.0-13.0-1.11"},{"startTime":196353.0000001192,"rt":1823.999999789521,"response":[{"id":0,"name":"Left","answer":36,"prompt":"Left","lastChangedTime":197770.00000001863},{"id":1,"name":"Right","answer":"50","prompt":"Right","lastChangedTime":null}],"trial_type":"canvas-sliders-response","trial_index":61,"time_elapsed":197969,"internal_node_id":"0.0-13.0-2.11"}],"confidenceCategory":0,"advisorAgrees":false,"advice":{"filePath":"assets/audio/voices/3/think_left.wav","string":"I think it was on the LEFT","loaded":true,"loading":true,"data":null,"buffer":{},"side":0,"confidence":0}},{"type":2,"typeName":"choice","block":3,"advisorId":1,"choice":[1,3],"answer":[1,1],"confidence":[14,1],"whichSide":1,"practice":false,"feedback":false,"warnings":[],"stimulusDrawTime":[200067.00000003912],"stimulusOffTime":[900.9999998379499,null],"fixationDrawTime":[199567.00000003912],"id":20,"dotDifference":9,"grid":{"dotCountL":191,"dotCountR":209,"gridWidth":20,"gridHeight":20,"dotWidth":2,"dotHeight":2,"paddingX":6,"paddingY":6,"gridL":[[1,1,1,1,0,0,1,0,1,0,0,0,0,0,0,1,1,0,1,0],[1,0,0,0,1,1,1,0,1,1,1,1,0,0,1,0,0,0,1,0],[1,0,0,0,1,1,1,0,1,1,0,0,0,1,0,1,0,1,1,1],[0,0,0,1,1,1,0,1,0,1,1,0,0,0,0,1,0,0,0,1],[1,1,1,0,0,1,0,0,1,0,0,1,1,1,0,0,1,0,1,1],[1,1,1,1,0,0,1,1,1,0,1,0,1,1,0,1,0,0,1,1],[0,0,0,1,1,0,1,0,0,0,1,1,1,1,0,0,1,1,1,1],[0,1,0,0,0,1,1,1,0,1,1,1,1,1,0,0,0,1,1,1],[1,1,0,0,1,0,1,0,0,1,0,0,1,0,1,1,1,1,1,0],[0,1,1,1,0,1,1,0,0,0,1,1,1,0,1,1,0,1,1,1],[0,1,1,1,1,1,1,0,0,0,0,1,0,1,0,1,0,0,1,1],[0,1,0,0,0,1,0,0,0,1,1,0,1,1,1,0,1,0,1,1],[1,0,0,1,1,1,0,1,1,1,1,0,1,0,0,0,0,0,1,1],[0,1,0,1,1,0,1,0,1,0,0,0,1,0,0,0,0,1,1,1],[0,1,1,0,1,0,0,0,1,0,0,1,1,0,0,1,1,1,1,0],[0,0,0,1,1,1,0,0,0,0,0,0,0,0,0,0,0,0,0,0],[0,1,0,0,0,1,0,0,1,0,0,0,1,1,0,1,1,0,1,0],[0,0,0,0,0,0,1,1,0,1,0,0,1,0,0,0,1,1,0,0],[1,0,0,0,0,0,0,0,1,1,0,0,1,0,1,1,1,0,0,0],[0,0,1,0,0,0,1,1,1,0,1,0,0,0,0,1,0,0,1,0]],"gridR":[[1,0,0,1,0,1,1,0,1,1,0,1,1,1,0,0,0,0,0,0],[0,1,1,1,0,0,1,1,0,1,1,1,1,0,0,0,1,0,1,1],[1,0,0,0,0,0,1,1,0,1,1,1,1,0,0,1,0,0,1,1],[0,0,1,1,1,0,0,0,0,0,0,0,0,0,1,1,1,0,0,1],[0,1,0,1,0,1,0,1,1,1,0,0,1,1,1,1,0,1,0,0],[0,1,1,1,1,0,0,1,1,0,1,0,0,1,0,1,0,1,0,0],[1,0,1,1,1,0,1,1,0,1,1,0,0,0,0,0,0,1,1,0],[0,1,1,0,0,1,0,1,0,1,0,0,1,1,1,0,0,1,1,0],[1,0,0,1,1,1,0,0,0,0,1,0,1,1,1,0,0,0,0,1],[0,0,0,1,1,1,1,1,1,1,0,1,0,0,0,0,0,1,0,1],[1,1,1,0,0,1,1,1,1,0,1,0,0,1,0,1,0,1,0,0],[1,1,1,0,0,0,1,0,0,0,1,1,1,1,1,1,0,1,1,1],[1,0,1,1,0,1,1,0,0,1,0,0,1,0,0,0,0,0,1,1],[0,0,0,0,1,1,0,1,0,0,1,1,0,1,1,0,1,0,1,1],[1,1,1,1,1,0,0,0,1,1,0,1,1,0,0,1,0,1,0,1],[1,0,1,1,0,1,0,0,1,1,1,1,0,1,0,1,1,0,1,0],[0,1,0,0,1,0,0,0,1,1,0,0,1,0,1,0,1,1,1,0],[1,0,1,0,0,1,1,1,1,0,1,1,1,1,1,0,0,1,0,0],[0,0,0,1,1,0,1,1,1,1,0,1,0,1,0,1,1,0,1,1],[0,0,1,1,0,0,1,0,0,1,0,1,1,1,1,1,1,1,0,0]],"displayWidth":172,"displayHeight":172,"spacing":100,"style":{"gridBorderColor":"#ffffff","gridBorderWidth":"3","dotColor":"#ffffff","dotLineWidth":"1"}},"pluginResponse":[{"startTime":199367.00000008568,"rt":2195.9999999962747,"response":[{"id":0,"name":"Left","answer":50,"prompt":"Left","lastChangedTime":null},{"id":1,"name":"Right","answer":"14","prompt":"Right","lastChangedTime":201096.00000013597}],"stimulusOffTime":900.9999998379499,"trial_type":"canvas-sliders-response","trial_index":63,"time_elapsed":201354,"internal_node_id":"0.0-15.0-0.0"},{"choiceTime":1257.9999999143183,"choice":1,"totalTime":3260.000000009313,"image":"http://localhost:8080/ExploringSocialMetacognition/assets/image/advisor1.png","adviceTime":2002.000000094995,"trial_type":"jspsych-jas-present-advice-choice","trial_index":64,"time_elapsed":204614,"internal_node_id":"0.0-15.0-1.0"},{"startTime":204824.00000002235,"rt":1703.999999910593,"response":[{"id":0,"name":"Left","answer":50,"prompt":"Left","lastChangedTime":null},{"id":1,"name":"Right","answer":"1","prompt":"Right","lastChangedTime":205901.00000007078}],"trial_type":"canvas-sliders-response","trial_index":65,"time_elapsed":206319,"internal_node_id":"0.0-15.0-2.0"}],"confidenceCategory":0,"advisorAgrees":false,"advice":{"filePath":"assets/audio/voices/3/think_left.wav","string":"I think it was on the LEFT","loaded":true,"loading":true,"data":null,"buffer":{},"side":0,"confidence":0}},{"type":2,"typeName":"choice","block":3,"advisorId":1,"choice":[1,3],"answer":[0,0],"confidence":[58,38],"whichSide":0,"practice":false,"feedback":false,"warnings":[],"stimulusDrawTime":[207431.00000009872],"stimulusOffTime":[900.0000001396984,null],"fixationDrawTime":[206929.9999999348],"id":21,"dotDifference":9,"grid":{"dotCountL":209,"dotCountR":191,"gridWidth":20,"gridHeight":20,"dotWidth":2,"dotHeight":2,"paddingX":6,"paddingY":6,"gridL":[[1,0,0,1,1,1,0,1,0,1,1,1,1,0,1,0,0,1,1,1],[0,1,0,0,0,1,1,1,0,1,1,0,0,0,0,1,1,0,0,1],[0,1,0,1,1,1,0,0,1,1,0,1,0,1,0,0,1,1,1,1],[1,0,1,1,1,0,0,0,0,1,1,1,1,1,0,0,1,0,0,0],[1,0,0,0,1,1,1,1,0,1,1,1,0,1,1,0,0,1,0,1],[1,1,1,1,0,0,1,1,1,0,0,1,0,1,0,0,1,0,1,1],[1,1,1,0,1,0,1,0,0,0,1,1,1,1,0,0,0,0,0,1],[0,1,1,0,0,1,1,1,1,0,1,1,0,0,1,0,0,1,1,1],[1,1,0,1,1,0,0,0,0,0,0,1,1,0,0,1,0,0,0,0],[1,1,0,1,1,0,0,1,0,1,0,1,1,0,0,0,0,1,1,1],[0,1,1,1,1,0,1,1,0,0,1,0,0,1,0,0,0,0,0,0],[0,0,1,1,1,0,1,1,0,1,1,0,0,1,1,1,1,0,0,0],[1,1,0,0,1,1,0,1,1,0,1,0,0,0,0,1,0,1,1,0],[0,1,1,0,1,0,1,0,0,0,1,1,1,0,1,0,0,1,0,1],[1,1,1,0,0,0,0,0,0,1,0,0,1,0,0,0,1,1,1,1],[0,0,1,1,0,0,0,1,1,0,1,1,0,1,1,1,0,1,0,1],[1,0,1,1,0,0,0,1,0,1,0,0,0,1,1,0,1,0,0,0],[1,1,1,0,1,0,0,1,1,0,1,1,0,1,0,1,1,1,0,0],[1,1,1,1,1,1,0,0,0,0,1,1,0,0,0,0,0,1,1,0],[1,1,0,0,0,0,1,1,1,1,1,1,0,0,1,1,0,0,1,1]],"gridR":[[1,1,1,1,0,0,1,1,0,1,1,0,1,0,0,1,1,1,0,0],[0,0,0,1,0,1,1,1,1,0,0,1,1,1,0,0,1,0,1,0],[0,0,1,1,0,1,0,1,1,1,0,0,0,0,0,0,0,0,0,0],[0,0,1,1,1,0,1,1,0,0,1,1,1,0,0,1,1,1,1,0],[0,0,0,1,1,1,1,0,1,1,1,0,1,0,1,1,1,1,0,1],[0,0,0,1,0,0,0,0,0,0,0,1,0,0,1,1,0,0,1,1],[0,0,1,1,0,0,0,0,1,0,0,1,0,1,0,0,0,1,0,0],[1,0,1,0,0,1,1,1,1,1,0,0,0,1,1,1,0,1,1,1],[0,0,0,0,0,0,1,1,0,0,1,0,1,0,1,1,0,0,1,0],[0,0,0,0,0,0,1,0,1,0,1,1,1,1,1,1,1,1,1,1],[1,1,0,1,0,1,0,0,1,1,0,0,1,1,1,1,0,0,1,0],[0,1,1,1,0,0,1,0,1,1,1,0,1,0,1,1,1,0,0,1],[0,1,0,1,0,0,1,0,0,1,1,0,1,0,0,1,0,0,1,0],[0,0,0,1,0,0,0,0,0,0,0,0,0,0,0,1,1,1,1,0],[1,0,1,0,0,1,1,0,1,0,0,1,0,0,1,0,0,0,1,0],[0,0,0,1,1,0,0,1,1,1,1,0,0,1,0,0,0,0,1,0],[0,1,1,1,1,1,0,0,1,1,1,0,1,1,0,1,1,0,0,1],[1,1,0,1,0,1,1,1,1,0,0,0,1,0,1,0,0,1,0,0],[1,0,0,0,1,1,1,1,0,1,1,1,1,0,1,1,0,0,1,1],[0,0,1,0,0,0,0,0,0,0,1,0,0,1,1,0,1,0,0,1]],"displayWidth":172,"displayHeight":172,"spacing":100,"style":{"gridBorderColor":"#ffffff","gridBorderWidth":"3","dotColor":"#ffffff","dotLineWidth":"1"}},"pluginResponse":[{"startTime":206729.99999998137,"rt":2116.0000001545995,"response":[{"id":0,"name":"Left","answer":58,"prompt":"Left","lastChangedTime":208341.99999994598},{"id":1,"name":"Right","answer":"50","prompt":"Right","lastChangedTime":null}],"stimulusOffTime":900.0000001396984,"trial_type":"canvas-sliders-response","trial_index":66,"time_elapsed":208638,"internal_node_id":"0.0-15.0-0.1"},{"choiceTime":980.9999999124557,"choice":1,"totalTime":2983.0000000074506,"image":"http://localhost:8080/ExploringSocialMetacognition/assets/image/advisor1.png","adviceTime":2002.000000094995,"trial_type":"jspsych-jas-present-advice-choice","trial_index":67,"time_elapsed":211621,"internal_node_id":"0.0-15.0-1.1"},{"startTime":211831.99999993667,"rt":1207.0000001695007,"response":[{"id":0,"name":"Left","answer":38,"prompt":"Left","lastChangedTime":212567.00000003912},{"id":1,"name":"Right","answer":"50","prompt":"Right","lastChangedTime":null}],"trial_type":"canvas-sliders-response","trial_index":68,"time_elapsed":212830,"internal_node_id":"0.0-15.0-2.1"}],"confidenceCategory":1,"advisorAgrees":false,"advice":{"filePath":"assets/audio/voices/3/think_right.wav","string":"I think it was on the RIGHT","loaded":true,"loading":true,"data":null,"buffer":{},"side":1,"confidence":0}},{"type":1,"typeName":"force","block":3,"advisorId":3,"choice":[],"answer":[0,0],"confidence":[73,94],"whichSide":0,"practice":false,"feedback":false,"warnings":[],"stimulusDrawTime":[213939.99999994412],"stimulusOffTime":[900.0000001396984,null],"fixationDrawTime":[213439.99999994412],"id":22,"dotDifference":6,"grid":{"dotCountL":206,"dotCountR":194,"gridWidth":20,"gridHeight":20,"dotWidth":2,"dotHeight":2,"paddingX":6,"paddingY":6,"gridL":[[0,0,1,1,1,0,0,0,1,1,1,1,0,1,1,0,0,0,1,0],[0,0,0,1,1,0,1,1,1,0,1,0,1,1,0,1,0,0,1,0],[1,0,1,1,1,0,0,0,0,1,1,1,1,1,1,1,1,0,1,1],[0,1,1,0,0,1,0,1,0,0,1,1,1,1,1,0,0,1,0,0],[1,1,0,1,1,0,1,0,1,1,1,1,0,1,0,0,1,1,0,0],[0,1,0,0,0,0,1,0,0,0,0,1,1,1,0,1,1,1,1,1],[1,1,0,0,0,0,1,1,0,0,0,1,1,0,1,0,0,1,0,0],[0,0,1,0,0,0,1,0,1,0,1,1,1,1,1,0,1,0,0,0],[0,0,0,0,1,1,1,0,1,1,0,0,0,0,0,1,1,0,1,0],[0,1,0,1,0,1,0,1,0,0,1,0,0,0,0,0,1,0,0,1],[1,0,1,1,0,0,0,0,1,0,1,0,0,0,1,0,0,1,1,0],[0,1,1,0,1,1,0,0,1,0,0,0,1,1,0,1,0,1,1,1],[0,1,1,0,1,1,0,1,1,1,1,0,1,1,0,1,1,1,0,0],[0,1,1,1,0,1,1,1,1,0,1,0,0,1,1,0,0,0,0,0],[0,1,1,1,1,0,0,1,1,1,0,0,1,0,1,0,0,1,1,1],[1,0,1,0,1,0,1,0,0,0,0,1,0,1,1,1,1,1,0,1],[1,1,1,0,1,1,1,0,1,0,0,1,0,1,1,0,0,0,1,0],[1,0,1,1,1,1,1,1,0,0,1,1,0,1,0,0,0,1,0,1],[0,1,0,1,1,1,1,0,1,0,0,0,1,1,0,0,0,1,0,0],[1,1,0,1,1,1,1,1,0,0,0,0,1,0,1,0,0,1,1,0]],"gridR":[[1,1,0,0,1,1,0,1,0,1,0,0,0,0,1,1,0,1,0,0],[1,0,1,1,1,0,0,0,1,0,1,1,0,1,1,0,0,1,1,0],[0,1,1,0,1,1,0,1,0,1,0,1,1,0,1,0,1,0,0,1],[0,0,0,0,0,1,0,0,0,1,0,1,0,0,1,1,1,1,0,1],[0,0,0,1,1,0,0,1,0,1,0,1,0,0,1,0,1,0,1,0],[0,0,0,1,1,0,1,1,0,0,1,1,1,1,1,0,0,0,0,1],[1,0,0,0,1,1,1,0,0,0,1,0,1,0,1,0,1,0,1,0],[1,0,0,1,0,0,0,1,0,1,1,1,0,0,0,0,0,0,0,1],[0,0,0,0,1,1,0,1,0,1,1,0,0,1,1,1,0,1,1,0],[1,0,0,1,1,1,1,1,0,1,1,0,0,1,1,0,0,1,0,0],[1,1,0,0,0,0,0,1,1,0,1,0,1,0,1,0,0,1,1,0],[0,0,0,0,1,1,0,1,1,1,0,0,1,1,0,0,1,1,1,1],[0,0,1,1,1,0,1,1,1,0,0,1,0,0,0,1,1,1,1,0],[0,0,1,1,1,0,0,0,1,0,1,1,0,1,1,1,0,1,0,0],[1,0,1,1,0,1,0,0,1,1,1,0,0,0,0,1,0,0,1,1],[0,1,1,1,1,0,1,0,0,0,1,0,1,0,1,1,1,1,0,1],[0,0,0,0,1,0,0,1,0,0,1,1,0,1,1,1,1,0,0,1],[0,1,0,0,0,0,0,0,1,1,0,1,0,1,0,1,0,1,0,1],[0,1,1,0,1,1,1,0,0,1,0,1,1,0,0,0,0,1,1,1],[1,1,0,0,1,0,1,1,0,1,0,0,0,1,0,0,1,0,1,0]],"displayWidth":172,"displayHeight":172,"spacing":100,"style":{"gridBorderColor":"#ffffff","gridBorderWidth":"3","dotColor":"#ffffff","dotLineWidth":"1"}},"pluginResponse":[{"startTime":213239.9999999907,"rt":2125,"response":[{"id":0,"name":"Left","answer":73,"prompt":"Left","lastChangedTime":214851.0000000242},{"id":1,"name":"Right","answer":"50","prompt":"Right","lastChangedTime":null}],"stimulusOffTime":900.0000001396984,"trial_type":"canvas-sliders-response","trial_index":69,"time_elapsed":215156,"internal_node_id":"0.0-15.0-0.2"},{"choiceTime":0,"choice":3,"totalTime":2002.000000094995,"image":"http://localhost:8080/ExploringSocialMetacognition/assets/image/advisor2.png","adviceTime":2002.000000094995,"trial_type":"jspsych-jas-present-advice-choice","trial_index":70,"time_elapsed":217159,"internal_node_id":"0.0-15.0-1.2"},{"startTime":217368.99999994785,"rt":2030.0000000279397,"response":[{"id":0,"name":"Left","answer":94,"prompt":"Left","lastChangedTime":218934.0000001248},{"id":1,"name":"Right","answer":"50","prompt":"Right","lastChangedTime":null}],"trial_type":"canvas-sliders-response","trial_index":71,"time_elapsed":219191,"internal_node_id":"0.0-15.0-2.2"}],"confidenceCategory":2,"advisorAgrees":true,"advice":{"filePath":"assets/audio/voices/2/left_think.wav","string":"It was on the LEFT, I think","loaded":true,"loading":true,"data":null,"buffer":{},"side":0,"confidence":0}},{"type":2,"typeName":"choice","block":3,"advisorId":3,"choice":[1,3],"answer":[0,0],"confidence":[99,100],"whichSide":0,"practice":false,"feedback":false,"warnings":["Difficulty at maximum!"],"stimulusDrawTime":[220301.99999990873],"stimulusOffTime":[900.0000001396984,null],"fixationDrawTime":[219801.99999990873],"id":23,"dotDifference":3,"grid":{"dotCountL":203,"dotCountR":197,"gridWidth":20,"gridHeight":20,"dotWidth":2,"dotHeight":2,"paddingX":6,"paddingY":6,"gridL":[[0,0,1,1,0,0,1,0,0,0,0,0,0,1,1,0,1,0,0,1],[1,0,0,1,0,0,0,1,1,0,1,0,1,0,1,1,0,1,1,1],[0,1,1,1,0,1,0,0,1,0,1,1,1,0,1,0,0,1,1,1],[0,0,1,0,1,0,1,0,1,1,0,0,0,1,0,0,1,0,1,1],[0,1,0,1,0,0,1,1,0,1,1,1,0,0,1,0,0,0,0,0],[0,0,1,0,0,1,1,0,0,1,0,1,1,0,0,1,0,0,0,1],[0,0,1,0,1,1,0,0,0,1,1,0,1,1,1,0,0,0,1,1],[0,1,1,0,1,1,1,0,0,1,1,1,0,1,1,0,0,0,1,0],[1,1,1,1,0,1,1,0,1,1,0,0,1,1,0,1,1,1,1,1],[1,1,1,1,0,1,0,0,1,0,0,1,0,0,0,0,1,0,1,0],[0,0,1,1,0,1,0,0,1,1,0,1,0,0,1,0,0,1,1,1],[0,1,1,0,0,0,1,1,1,0,0,1,1,1,0,0,0,0,1,0],[0,0,0,1,0,0,0,1,1,0,0,1,1,1,1,0,0,0,0,0],[0,1,1,1,0,1,0,1,0,0,1,0,0,1,1,1,1,0,1,1],[0,1,0,0,0,0,0,1,0,1,1,0,1,1,0,0,0,1,0,1],[1,1,1,0,0,0,1,0,1,0,1,1,1,1,0,1,1,1,1,1],[1,1,0,0,1,1,0,0,0,1,1,0,0,0,1,0,1,0,1,0],[0,0,0,1,0,0,1,0,1,0,0,1,1,1,0,0,1,1,0,0],[1,1,0,1,1,1,1,0,1,1,0,1,1,1,0,1,0,0,0,0],[1,1,1,1,0,0,1,1,1,0,1,1,1,1,1,0,1,1,0,0]],"gridR":[[1,1,1,1,1,1,0,1,0,1,1,1,1,1,0,0,0,0,1,0],[0,1,1,0,1,1,1,1,0,0,1,0,0,1,1,1,0,1,0,1],[0,0,1,1,0,0,0,0,0,1,0,1,0,1,0,1,0,0,0,0],[1,0,1,1,0,0,1,1,0,0,1,0,1,0,0,1,1,0,0,1],[1,0,1,0,1,0,1,0,1,0,1,0,1,0,1,0,0,0,0,1],[1,0,0,1,0,0,0,1,1,0,0,1,1,0,1,1,1,0,0,1],[1,1,0,1,0,0,1,1,1,0,1,1,1,0,0,0,0,1,0,0],[0,1,0,1,1,1,0,0,0,0,0,0,0,1,1,0,1,0,1,1],[1,1,0,0,1,0,0,1,1,0,1,0,0,1,1,0,1,0,0,1],[1,0,1,0,1,1,1,1,1,0,0,0,0,1,1,0,1,0,1,1],[0,0,1,0,0,0,0,1,1,1,1,1,1,1,1,0,1,0,1,1],[1,1,1,1,0,1,0,1,0,0,0,1,1,1,0,1,1,1,0,0],[0,1,1,1,0,0,1,0,0,1,0,0,1,0,1,1,0,0,0,0],[0,0,1,1,1,1,1,0,1,1,0,0,1,0,0,0,0,1,1,0],[0,1,1,1,0,0,0,0,1,1,1,1,1,0,0,1,0,0,1,0],[0,0,1,1,0,0,0,0,0,1,0,0,0,0,1,0,1,0,1,0],[0,1,0,1,1,0,1,1,1,1,0,0,1,1,0,0,0,1,1,1],[0,1,1,0,1,1,0,1,0,0,1,1,1,0,0,1,1,0,0,0],[0,1,1,0,1,1,0,0,1,0,1,0,0,1,0,1,0,0,1,0],[1,1,1,1,0,0,0,1,0,1,0,0,0,1,0,0,0,0,0,0]],"displayWidth":172,"displayHeight":172,"spacing":100,"style":{"gridBorderColor":"#ffffff","gridBorderWidth":"3","dotColor":"#ffffff","dotLineWidth":"1"}},"pluginResponse":[{"startTime":219601.9999999553,"rt":2239.999999990687,"response":[{"id":0,"name":"Left","answer":99,"prompt":"Left","lastChangedTime":221334.99999996275},{"id":1,"name":"Right","answer":"50","prompt":"Right","lastChangedTime":null}],"stimulusOffTime":900.0000001396984,"trial_type":"canvas-sliders-response","trial_index":72,"time_elapsed":221634,"internal_node_id":"0.0-15.0-0.3"},{"choiceTime":1167.9999998304993,"choice":3,"totalTime":3170.9999998565763,"image":"http://localhost:8080/ExploringSocialMetacognition/assets/image/advisor2.png","adviceTime":2003.000000026077,"trial_type":"jspsych-jas-present-advice-choice","trial_index":73,"time_elapsed":224805,"internal_node_id":"0.0-15.0-1.3"},{"startTime":225015.00000013039,"rt":2861.9999999646097,"response":[{"id":0,"name":"Left","answer":100,"prompt":"Left","lastChangedTime":227195.99999999627},{"id":1,"name":"Right","answer":"50","prompt":"Right","lastChangedTime":null}],"trial_type":"canvas-sliders-response","trial_index":74,"time_elapsed":227669,"internal_node_id":"0.0-15.0-2.3"}],"confidenceCategory":2,"advisorAgrees":true,"advice":{"filePath":"assets/audio/voices/2/left_think.wav","string":"It was on the LEFT, I think","loaded":true,"loading":true,"data":null,"buffer":{},"side":0,"confidence":0}},{"type":1,"typeName":"force","block":3,"advisorId":3,"choice":[],"answer":[0,0],"confidence":[50,80],"whichSide":0,"practice":false,"feedback":false,"warnings":["Difficulty at maximum!"],"stimulusDrawTime":[228779.00000009686],"stimulusOffTime":[901.0000000707805,null],"fixationDrawTime":[228280.00000002794],"id":24,"dotDifference":1,"grid":{"dotCountL":201,"dotCountR":199,"gridWidth":20,"gridHeight":20,"dotWidth":2,"dotHeight":2,"paddingX":6,"paddingY":6,"gridL":[[1,1,1,1,0,0,1,0,1,1,1,1,1,0,0,0,1,1,0,1],[0,1,0,1,1,0,1,1,1,0,1,0,0,0,1,1,1,0,0,1],[0,1,1,0,0,0,1,0,1,1,0,1,0,1,0,0,0,1,0,0],[1,0,0,1,1,0,0,1,1,0,0,1,1,0,1,0,0,1,1,1],[0,1,0,1,1,0,0,0,1,0,0,0,0,0,0,0,0,1,0,1],[1,1,1,0,0,1,1,1,0,1,0,0,0,0,1,1,1,1,0,1],[1,0,1,1,0,1,1,0,0,1,0,0,1,1,1,0,1,0,1,1],[1,0,1,1,0,1,0,0,1,1,0,0,1,1,1,1,1,1,1,1],[0,1,0,1,0,0,1,0,0,1,0,1,0,0,0,0,1,0,1,1],[0,1,0,0,1,0,1,0,1,0,1,1,0,0,0,0,1,1,0,1],[1,1,1,1,1,0,0,0,1,1,1,1,0,0,1,0,1,1,0,0],[1,1,0,0,0,0,0,1,1,1,0,1,0,1,1,1,1,0,0,0],[1,0,0,0,0,0,0,0,1,0,1,1,1,0,1,0,0,1,0,1],[1,0,0,0,1,1,1,0,1,0,0,0,1,1,1,1,0,0,1,0],[1,0,0,1,0,1,1,0,1,0,1,1,0,0,0,0,0,1,1,1],[0,1,0,0,0,1,0,0,1,0,1,1,1,0,0,1,1,1,1,1],[1,1,1,0,0,1,1,1,0,1,1,0,0,1,0,0,1,1,1,0],[0,0,1,0,0,0,0,0,1,1,1,0,1,0,0,0,1,0,0,0],[1,0,0,0,1,1,1,1,0,0,1,1,0,1,1,1,0,1,1,1],[0,1,0,0,1,0,0,0,0,0,0,0,1,1,0,0,1,0,0,0]],"gridR":[[1,0,1,1,0,1,0,0,1,1,0,0,1,1,0,0,1,0,0,0],[1,1,1,1,0,0,0,1,1,1,1,1,0,0,1,1,0,0,0,0],[0,1,0,0,0,0,1,0,1,1,0,0,0,1,1,0,1,1,1,0],[1,1,0,0,0,1,0,1,1,1,0,0,0,0,0,0,1,0,0,1],[1,1,1,1,1,0,1,1,1,0,0,0,1,1,1,1,0,0,0,0],[1,1,1,1,1,1,0,1,1,1,0,0,0,1,1,1,0,0,0,0],[0,0,1,0,1,0,0,1,1,1,0,0,1,0,0,0,1,1,0,1],[1,0,1,1,0,0,1,1,1,0,0,1,1,1,0,1,0,0,1,1],[1,1,0,1,1,0,0,0,0,1,1,1,0,1,1,0,0,0,0,1],[1,0,0,1,0,1,1,0,1,1,0,0,0,0,0,1,0,0,0,0],[1,0,0,1,1,1,0,1,1,1,1,0,1,1,1,1,1,0,1,0],[1,1,0,0,0,0,1,1,1,0,0,1,0,0,0,1,1,0,0,1],[1,0,1,0,0,1,1,1,0,1,0,1,0,0,1,0,1,1,0,0],[0,0,1,1,0,0,1,1,1,0,0,1,1,1,0,0,0,0,1,1],[1,1,1,0,1,1,0,1,1,0,1,1,1,1,1,1,1,1,0,0],[0,0,0,1,1,0,0,0,0,1,1,0,0,0,1,1,0,0,0,1],[0,0,0,1,1,0,1,0,0,0,1,0,1,0,1,0,0,0,0,1],[0,0,1,1,1,0,0,1,0,1,0,0,0,1,1,1,0,0,1,0],[1,0,1,0,0,1,1,1,1,0,0,1,1,0,0,0,1,1,0,0],[0,0,0,1,0,1,1,1,0,1,0,0,1,0,0,1,0,1,1,0]],"displayWidth":172,"displayHeight":172,"spacing":100,"style":{"gridBorderColor":"#ffffff","gridBorderWidth":"3","dotColor":"#ffffff","dotLineWidth":"1"}},"pluginResponse":[{"startTime":228078.9999999106,"rt":2350.0000000931323,"response":[{"id":0,"name":"Left","answer":50,"prompt":"Left","lastChangedTime":229975.00000009313},{"id":1,"name":"Right","answer":"50","prompt":"Right","lastChangedTime":null}],"stimulusOffTime":901.0000000707805,"trial_type":"canvas-sliders-response","trial_index":75,"time_elapsed":230220,"internal_node_id":"0.0-15.0-0.4"},{"choiceTime":0,"choice":3,"totalTime":2003.000000026077,"image":"http://localhost:8080/ExploringSocialMetacognition/assets/image/advisor2.png","adviceTime":2003.000000026077,"trial_type":"jspsych-jas-present-advice-choice","trial_index":76,"time_elapsed":232224,"internal_node_id":"0.0-15.0-1.4"},{"startTime":232434.0000001248,"rt":1146.9999998807907,"response":[{"id":0,"name":"Left","answer":80,"prompt":"Left","lastChangedTime":233057.99999996088},{"id":1,"name":"Right","answer":"50","prompt":"Right","lastChangedTime":null}],"trial_type":"canvas-sliders-response","trial_index":77,"time_elapsed":233372,"internal_node_id":"0.0-15.0-2.4"}],"confidenceCategory":0,"advisorAgrees":true,"advice":{"filePath":"assets/audio/voices/2/left_think.wav","string":"It was on the LEFT, I think","loaded":true,"loading":true,"data":null,"buffer":{},"side":0,"confidence":0}},{"type":2,"typeName":"choice","block":3,"advisorId":3,"choice":[1,3],"answer":[1,1],"confidence":[23,12],"whichSide":1,"practice":false,"feedback":false,"warnings":["Difficulty at maximum!"],"stimulusDrawTime":[234483.99999993853],"stimulusOffTime":[901.0000000707805,null],"fixationDrawTime":[233983.99999993853],"id":25,"dotDifference":1,"grid":{"dotCountL":199,"dotCountR":201,"gridWidth":20,"gridHeight":20,"dotWidth":2,"dotHeight":2,"paddingX":6,"paddingY":6,"gridL":[[0,0,0,1,0,0,1,1,0,0,1,0,0,0,1,0,0,1,1,0],[1,1,1,1,1,1,0,1,1,1,1,0,1,0,1,0,1,1,1,0],[0,1,0,0,1,0,0,1,1,0,0,0,0,0,1,0,1,0,0,1],[1,1,0,1,0,1,0,1,1,1,0,1,0,1,1,0,0,0,1,0],[1,0,0,0,0,1,1,0,0,0,0,0,1,1,1,0,0,0,0,0],[1,1,0,1,0,1,0,1,0,0,0,0,1,0,1,1,1,1,0,0],[1,0,1,1,1,0,1,1,0,1,0,0,1,0,1,0,0,0,1,0],[1,1,1,0,1,0,0,1,0,1,1,0,0,1,1,0,0,1,0,1],[0,0,0,0,1,1,0,1,1,1,0,1,0,0,0,0,0,1,1,1],[0,0,0,1,1,0,0,1,0,1,0,1,0,1,1,1,0,0,1,0],[1,1,1,0,0,0,0,1,0,1,1,1,0,1,0,1,0,0,0,1],[1,0,0,1,0,1,0,0,1,1,0,0,1,1,1,0,1,1,1,0],[0,1,1,0,1,0,1,0,1,1,0,1,1,0,1,0,1,0,0,0],[1,0,0,0,1,0,0,1,0,1,0,0,1,0,1,1,1,0,0,1],[0,0,0,0,0,1,1,1,1,1,0,1,1,0,1,1,1,1,0,0],[0,1,1,1,0,0,1,0,0,1,1,0,0,1,0,0,1,0,0,0],[1,0,0,1,0,0,0,1,0,1,1,0,0,1,1,0,0,1,1,1],[0,0,0,1,0,1,1,0,1,0,1,0,1,1,1,0,1,1,1,1],[0,1,0,0,0,1,1,0,1,1,0,0,1,1,1,1,1,0,1,1],[0,0,1,0,1,0,1,0,0,1,1,1,1,1,0,1,0,1,1,0]],"gridR":[[0,1,0,1,1,0,1,1,0,1,1,1,0,0,0,0,1,1,0,1],[0,1,1,0,0,0,0,0,1,1,1,0,0,0,1,0,0,0,0,0],[1,1,0,0,1,1,0,1,0,1,1,0,0,0,1,0,1,1,1,1],[1,1,1,0,0,0,1,1,0,1,1,1,1,0,0,0,0,0,0,1],[1,0,1,1,1,1,1,0,0,0,0,1,0,1,0,0,0,1,1,0],[1,0,0,0,1,1,1,0,1,0,0,0,1,0,0,0,0,0,0,1],[1,0,1,0,1,1,1,1,0,0,1,1,0,0,0,0,1,0,1,0],[0,1,1,0,1,0,0,1,0,0,1,1,1,0,0,0,1,1,0,1],[1,1,1,1,0,0,0,1,1,0,0,0,0,1,1,1,1,0,1,1],[1,1,1,1,0,0,1,0,1,1,0,1,1,0,0,0,1,1,0,0],[1,1,0,0,1,1,1,0,0,1,1,1,0,1,1,1,0,0,0,1],[1,1,0,1,1,1,1,1,0,1,0,1,1,1,0,1,1,0,0,1],[1,0,0,0,0,0,0,1,1,0,0,0,0,1,1,0,1,0,0,0],[0,1,0,1,1,1,0,1,0,0,0,1,0,0,0,1,0,0,0,0],[0,1,0,0,0,0,0,1,0,1,1,1,1,1,1,0,1,1,1,0],[1,0,0,1,0,1,0,1,0,1,0,1,1,0,1,1,1,1,1,0],[0,0,0,1,0,0,0,0,0,0,0,1,1,1,1,1,1,0,1,1],[0,0,0,0,1,1,0,1,0,1,0,1,1,1,1,1,0,0,0,0],[1,0,0,1,0,1,0,1,0,0,1,1,1,1,0,1,1,1,1,0],[1,0,1,1,0,0,1,0,1,0,1,1,0,0,1,0,0,1,1,0]],"displayWidth":172,"displayHeight":172,"spacing":100,"style":{"gridBorderColor":"#ffffff","gridBorderWidth":"3","dotColor":"#ffffff","dotLineWidth":"1"}},"pluginResponse":[{"startTime":233783.9999999851,"rt":2175.000000046566,"response":[{"id":0,"name":"Left","answer":50,"prompt":"Left","lastChangedTime":null},{"id":1,"name":"Right","answer":"23","prompt":"Right","lastChangedTime":235526.00000007078}],"stimulusOffTime":901.0000000707805,"trial_type":"canvas-sliders-response","trial_index":78,"time_elapsed":235750,"internal_node_id":"0.0-15.0-0.5"},{"choiceTime":1334.999999962747,"choice":3,"totalTime":3337.999999988824,"image":"http://localhost:8080/ExploringSocialMetacognition/assets/image/advisor2.png","adviceTime":2003.000000026077,"trial_type":"jspsych-jas-present-advice-choice","trial_index":79,"time_elapsed":239088,"internal_node_id":"0.0-15.0-1.5"},{"startTime":239297.99999995157,"rt":1459.000000031665,"response":[{"id":0,"name":"Left","answer":50,"prompt":"Left","lastChangedTime":null},{"id":1,"name":"Right","answer":"12","prompt":"Right","lastChangedTime":240229.99999998137}],"trial_type":"canvas-sliders-response","trial_index":80,"time_elapsed":240548,"internal_node_id":"0.0-15.0-2.5"}],"confidenceCategory":0,"advisorAgrees":false,"advice":{"filePath":"assets/audio/voices/2/think_left.wav","string":"I think it was on the LEFT","loaded":true,"loading":true,"data":null,"buffer":{},"side":0,"confidence":0}},{"type":1,"typeName":"force","block":3,"advisorId":1,"choice":[],"answer":[1,1],"confidence":[28,3],"whichSide":1,"practice":false,"feedback":false,"warnings":["Difficulty at maximum!"],"stimulusDrawTime":[241658.00000005402],"stimulusOffTime":[899.9999999068677,null],"fixationDrawTime":[241158.00000005402],"id":26,"dotDifference":1,"grid":{"dotCountL":199,"dotCountR":201,"gridWidth":20,"gridHeight":20,"dotWidth":2,"dotHeight":2,"paddingX":6,"paddingY":6,"gridL":[[1,1,1,1,0,0,0,1,1,0,1,1,1,1,1,0,0,0,1,0],[0,0,0,1,0,0,0,0,1,0,1,0,0,0,0,1,0,0,0,0],[1,1,0,1,1,0,0,1,1,0,0,0,1,0,1,1,1,0,1,0],[0,0,1,0,0,0,0,1,1,0,1,0,1,1,0,0,0,1,0,0],[1,0,0,1,0,0,0,0,1,0,1,0,1,0,1,1,1,0,0,0],[1,0,1,1,1,0,1,1,1,0,0,1,1,0,1,0,1,1,1,0],[0,1,1,1,0,1,1,0,0,0,0,0,1,0,0,0,1,0,1,0],[0,1,1,1,0,1,0,1,0,1,0,0,1,0,0,0,0,0,0,1],[1,1,1,1,0,1,1,0,1,1,1,1,1,1,1,0,0,0,1,0],[1,0,1,0,1,1,1,0,0,0,1,0,0,0,0,1,0,0,0,0],[1,0,1,0,0,1,1,0,1,0,0,0,0,1,0,1,1,0,0,1],[0,1,0,0,0,1,0,1,1,1,1,1,0,1,0,0,1,1,1,0],[1,1,1,1,0,0,1,0,1,1,1,0,1,1,1,1,1,1,0,1],[1,1,0,1,0,1,1,1,0,1,0,1,1,1,1,0,0,0,0,1],[0,0,1,1,1,1,1,1,0,1,1,1,0,1,1,0,0,0,1,0],[0,0,0,0,1,0,1,1,0,1,1,0,1,0,0,1,1,1,1,1],[0,1,1,1,0,1,0,0,0,1,1,1,1,1,0,0,1,1,1,0],[0,1,0,0,0,0,0,1,0,1,0,0,0,0,0,0,0,1,0,1],[1,1,0,0,0,0,0,0,0,0,0,1,1,1,1,1,0,0,1,1],[1,0,1,1,1,1,0,0,1,0,0,1,1,0,0,1,0,1,0,1]],"gridR":[[1,1,1,0,0,1,0,1,1,1,1,0,0,1,0,0,0,0,1,1],[1,1,0,1,1,0,0,0,0,1,1,1,1,1,0,0,1,0,1,1],[1,0,1,0,0,0,0,0,1,1,1,0,0,1,0,1,0,1,0,1],[0,0,1,0,1,0,0,1,0,0,1,1,0,0,1,1,1,1,0,0],[0,0,0,1,1,0,0,0,0,1,1,1,0,0,0,1,1,1,0,1],[1,0,0,1,0,0,1,1,0,1,0,0,1,0,1,1,0,1,1,1],[0,1,1,0,1,1,0,0,1,0,1,0,0,1,1,0,1,1,0,0],[0,1,1,0,0,0,0,0,0,0,1,1,1,0,0,1,1,0,1,0],[0,0,1,0,0,0,1,0,1,0,0,1,0,1,1,1,1,1,1,0],[0,1,1,0,1,0,1,1,0,1,0,0,0,0,1,0,1,1,0,1],[1,0,1,1,0,1,0,0,0,0,0,0,0,1,0,1,1,1,1,0],[0,0,1,0,0,0,0,1,0,1,1,1,1,0,1,1,0,1,0,0],[0,1,1,0,1,0,1,0,1,0,1,0,1,0,1,1,1,1,0,1],[0,1,0,0,1,0,0,0,1,1,1,0,0,1,1,1,0,1,0,0],[1,0,1,0,1,0,0,1,1,1,1,1,0,1,1,1,0,0,1,1],[0,1,1,0,0,0,0,1,1,1,1,1,1,0,1,0,0,0,1,1],[0,1,1,0,0,0,1,0,0,1,0,1,1,0,0,1,1,0,1,0],[1,1,0,1,0,0,1,1,1,1,1,1,0,1,1,0,1,0,0,0],[0,1,1,1,0,1,1,0,1,0,0,0,0,1,1,0,0,0,0,1],[0,1,1,1,0,1,1,1,0,0,0,0,0,0,0,1,0,0,1,1]],"displayWidth":172,"displayHeight":172,"spacing":100,"style":{"gridBorderColor":"#ffffff","gridBorderWidth":"3","dotColor":"#ffffff","dotLineWidth":"1"}},"pluginResponse":[{"startTime":240958.00000010058,"rt":2103.999999817461,"response":[{"id":0,"name":"Left","answer":50,"prompt":"Left","lastChangedTime":null},{"id":1,"name":"Right","answer":"28","prompt":"Right","lastChangedTime":242640.00000013039}],"stimulusOffTime":899.9999999068677,"trial_type":"canvas-sliders-response","trial_index":81,"time_elapsed":242853,"internal_node_id":"0.0-15.0-0.6"},{"choiceTime":0,"choice":1,"totalTime":2001.9999998621643,"image":"http://localhost:8080/ExploringSocialMetacognition/assets/image/advisor1.png","adviceTime":2001.9999998621643,"trial_type":"jspsych-jas-present-advice-choice","trial_index":82,"time_elapsed":244856,"internal_node_id":"0.0-15.0-1.6"},{"startTime":245066.00000010803,"rt":1109.9999998696148,"response":[{"id":0,"name":"Left","answer":50,"prompt":"Left","lastChangedTime":null},{"id":1,"name":"Right","answer":"3","prompt":"Right","lastChangedTime":245729.99999998137}],"trial_type":"canvas-sliders-response","trial_index":83,"time_elapsed":245967,"internal_node_id":"0.0-15.0-2.6"}],"confidenceCategory":0,"advisorAgrees":false,"advice":{"filePath":"assets/audio/voices/3/think_left.wav","string":"I think it was on the LEFT","loaded":true,"loading":true,"data":null,"buffer":{},"side":0,"confidence":0}},{"type":1,"typeName":"force","block":3,"advisorId":1,"choice":[],"answer":[1,1],"confidence":[52,67],"whichSide":1,"practice":false,"feedback":false,"warnings":["Difficulty at maximum!"],"stimulusDrawTime":[247077.9999999795],"stimulusOffTime":[901.0000000707805,null],"fixationDrawTime":[246577.9999999795],"id":27,"dotDifference":1,"grid":{"dotCountL":199,"dotCountR":201,"gridWidth":20,"gridHeight":20,"dotWidth":2,"dotHeight":2,"paddingX":6,"paddingY":6,"gridL":[[1,1,0,0,1,0,0,0,0,0,0,1,1,0,1,1,0,0,0,0],[1,0,0,0,0,0,0,0,0,1,0,0,0,0,1,1,0,1,1,0],[1,1,1,1,0,1,1,1,1,0,0,1,0,1,0,0,1,0,0,0],[0,0,1,1,0,0,0,0,0,1,0,0,1,1,1,1,0,0,0,0],[0,1,1,0,1,0,1,0,1,1,0,0,0,0,1,0,1,1,1,1],[0,1,1,0,1,1,0,1,1,1,1,0,1,0,1,1,1,0,1,1],[1,0,0,1,0,1,1,0,0,0,0,1,0,1,0,0,0,0,1,1],[0,1,1,0,1,0,0,0,1,1,1,1,0,1,0,1,1,0,1,1],[0,1,1,1,1,0,0,1,0,1,1,1,0,0,1,1,1,0,0,1],[0,1,1,0,1,0,0,1,1,0,1,0,0,0,0,0,1,0,0,1],[0,1,0,1,0,1,1,0,0,0,0,1,1,1,0,0,1,1,1,0],[0,1,1,1,1,0,0,0,0,0,1,0,0,1,0,0,1,1,0,0],[1,1,0,1,0,1,0,1,1,0,1,1,1,0,1,0,1,0,0,0],[0,0,1,1,1,0,0,1,0,1,1,0,1,1,1,0,0,0,1,0],[1,0,0,1,0,1,1,0,0,0,0,1,0,1,1,1,0,1,1,0],[0,1,0,1,0,1,0,0,0,0,0,1,1,1,1,1,1,0,0,0],[0,1,1,1,0,0,1,1,1,0,1,0,0,1,1,1,1,1,0,1],[1,0,1,0,0,0,1,1,0,0,0,0,1,0,1,1,0,0,0,0],[0,0,1,1,1,0,1,1,1,1,1,1,1,1,0,1,1,0,0,0],[1,1,1,1,1,1,0,0,1,0,0,0,1,1,0,1,1,0,0,1]],"gridR":[[0,0,1,1,1,1,1,1,1,1,1,0,0,0,0,1,1,1,1,0],[0,0,1,0,1,0,1,1,0,1,1,1,1,1,1,0,0,1,0,1],[0,0,0,1,1,1,0,0,1,1,1,0,0,1,1,0,1,1,1,1],[0,0,1,1,0,0,1,1,0,0,1,1,1,1,0,1,0,1,1,0],[0,1,0,0,1,0,1,0,1,1,1,1,1,0,1,1,0,0,1,0],[0,0,0,1,0,0,1,0,1,1,1,0,1,0,0,1,0,0,0,1],[0,1,0,1,1,1,1,1,1,0,0,1,0,0,0,0,1,1,1,1],[1,1,1,0,1,1,1,0,1,1,1,1,0,0,0,0,1,0,0,1],[0,0,1,1,1,1,1,0,1,1,1,0,1,1,1,0,1,0,0,1],[0,1,1,1,1,0,1,1,1,1,0,1,0,0,1,1,1,1,0,0],[0,1,0,0,0,0,0,0,0,1,1,1,0,0,1,1,0,0,0,0],[1,0,0,0,1,1,0,1,1,0,1,0,1,0,0,0,0,0,1,0],[0,1,0,1,1,1,1,0,0,0,1,1,0,0,1,1,1,0,1,1],[1,0,1,0,1,1,0,1,0,0,0,0,1,0,0,1,1,1,0,1],[0,1,0,1,1,0,0,1,1,0,0,1,0,0,0,1,0,0,1,1],[1,1,1,0,1,1,1,1,0,0,0,0,0,0,0,0,0,0,1,0],[0,1,0,1,0,1,0,1,1,0,1,0,0,1,0,0,1,0,0,1],[0,1,0,1,0,1,1,1,1,1,1,0,1,1,1,0,0,0,1,1],[0,1,0,0,0,0,0,0,0,0,0,0,0,1,1,0,0,1,0,1],[0,1,0,0,0,0,0,1,1,0,0,1,0,0,0,0,0,0,0,0]],"displayWidth":172,"displayHeight":172,"spacing":100,"style":{"gridBorderColor":"#ffffff","gridBorderWidth":"3","dotColor":"#ffffff","dotLineWidth":"1"}},"pluginResponse":[{"startTime":246378.00000002608,"rt":2377.000000094995,"response":[{"id":0,"name":"Left","answer":50,"prompt":"Left","lastChangedTime":null},{"id":1,"name":"Right","answer":"52","prompt":"Right","lastChangedTime":248203.9999999106}],"stimulusOffTime":901.0000000707805,"trial_type":"canvas-sliders-response","trial_index":84,"time_elapsed":248546,"internal_node_id":"0.0-15.0-0.7"},{"choiceTime":0,"choice":1,"totalTime":2003.000000026077,"image":"http://localhost:8080/ExploringSocialMetacognition/assets/image/advisor1.png","adviceTime":2003.000000026077,"trial_type":"jspsych-jas-present-advice-choice","trial_index":85,"time_elapsed":250550,"internal_node_id":"0.0-15.0-1.7"},{"startTime":250760.0000000093,"rt":1176.9999999087304,"response":[{"id":0,"name":"Left","answer":50,"prompt":"Left","lastChangedTime":null},{"id":1,"name":"Right","answer":"67","prompt":"Right","lastChangedTime":251358.99999993853}],"trial_type":"canvas-sliders-response","trial_index":86,"time_elapsed":251728,"internal_node_id":"0.0-15.0-2.7"}],"confidenceCategory":1,"advisorAgrees":true,"advice":{"filePath":"assets/audio/voices/3/think_right.wav","string":"I think it was on the RIGHT","loaded":true,"loading":true,"data":null,"buffer":{},"side":1,"confidence":0}},{"type":2,"typeName":"choice","block":3,"advisorId":3,"choice":[1,3],"answer":[0,0],"confidence":[37,57],"whichSide":1,"practice":false,"feedback":false,"warnings":[],"stimulusDrawTime":[252837.99999998882],"stimulusOffTime":[899.9999999068677,null],"fixationDrawTime":[252338.9999999199],"id":28,"dotDifference":1,"grid":{"dotCountL":199,"dotCountR":201,"gridWidth":20,"gridHeight":20,"dotWidth":2,"dotHeight":2,"paddingX":6,"paddingY":6,"gridL":[[1,0,0,1,1,0,1,1,0,1,0,1,0,1,0,0,0,0,1,0],[0,1,0,1,1,1,0,0,0,1,1,0,1,1,0,0,1,0,0,1],[1,1,1,0,0,1,0,1,1,1,1,0,1,1,0,1,0,1,1,0],[0,0,1,0,0,1,1,1,1,0,1,1,0,0,1,1,0,0,0,0],[0,1,1,1,0,0,0,1,1,0,0,0,1,1,1,1,0,