{"participantId":1520014002600,"dotCount":200,"dotDifference":10,"difficultyStep":3,"advisors":[{"id":3,"adviceType":0,"voice":{"basePath":"","id":3,"name":"Kate","lines":{"think_left":{"filePath":"assets/audio/voices/3/think_left.wav","string":"I think it was on the LEFT","loaded":true,"loading":true,"data":null,"buffer":{},"side":0,"confidence":0},"think_right":{"filePath":"assets/audio/voices/3/think_right.wav","string":"I think it was on the RIGHT","loaded":true,"loading":true,"data":null,"buffer":{},"side":1,"confidence":0},"left_think":{"filePath":"assets/audio/voices/3/left_think.wav","string":"It was on the LEFT, I think","loaded":true,"loading":true,"data":null,"buffer":{},"side":0,"confidence":0},"right_think":{"filePath":"assets/audio/voices/3/right_think.wav","string":"It was on the RIGHT, I think","loaded":true,"loading":true,"data":null,"buffer":{},"side":1,"confidence":0},"intro":{"filePath":"assets/audio/voices/3/intro.wav","string":"Hello, my name is KATE","loaded":true,"loading":true,"data":null,"buffer":{},"side":false}}},"name":"Kate","portrait":{},"portraitSrc":"http://localhost:8080/ExploringSocialMetacognition/assets/image/advisor2.png"},{"id":2,"adviceType":2,"voice":{"basePath":"","id":2,"name":"Bea","lines":{"think_left":{"filePath":"assets/audio/voices/2/think_left.wav","string":"I think it was on the LEFT","loaded":true,"loading":true,"data":null,"buffer":{},"side":0,"confidence":0},"think_right":{"filePath":"assets/audio/voices/2/think_right.wav","string":"I think it was on the RIGHT","loaded":true,"loading":true,"data":null,"buffer":{},"side":1,"confidence":0},"left_think":{"filePath":"assets/audio/voices/2/left_think.wav","string":"It was on the LEFT, I think","loaded":true,"loading":true,"data":null,"buffer":{},"side":0,"confidence":0},"right_think":{"filePath":"assets/audio/voices/2/right_think.wav","string":"It was on the RIGHT, I think","loaded":true,"loading":true,"data":null,"buffer":{},"side":1,"confidence":0},"intro":{"filePath":"assets/audio/voices/2/intro.wav","string":"Hello, my name is BEA","loaded":true,"loading":true,"data":null,"buffer":{},"side":false}}},"name":"Bea","portrait":{},"portraitSrc":"http://localhost:8080/ExploringSocialMetacognition/assets/image/advisor1.png"},{"id":1,"adviceType":1,"voice":{"basePath":"","id":1,"name":"Annie","lines":{"think_left":{"filePath":"assets/audio/voices/1/think_left.wav","string":"I think it was on the LEFT","loaded":true,"loading":true,"data":null,"buffer":{},"side":0,"confidence":0},"think_right":{"filePath":"assets/audio/voices/1/think_right.wav","string":"I think it was on the RIGHT","loaded":true,"loading":true,"data":null,"buffer":{},"side":1,"confidence":0},"left_think":{"filePath":"assets/audio/voices/1/left_think.wav","string":"It was on the LEFT, I think","loaded":true,"loading":true,"data":null,"buffer":{},"side":0,"confidence":0},"right_think":{"filePath":"assets/audio/voices/1/right_think.wav","string":"It was on the RIGHT, I think","loaded":true,"loading":true,"data":null,"buffer":{},"side":1,"confidence":0},"intro":{"filePath":"assets/audio/voices/1/intro.wav","string":"Hello, my name is ANNIE","loaded":true,"loading":true,"data":null,"buffer":{},"side":false}}},"name":"Annie","portrait":{},"portraitSrc":"http://localhost:8080/ExploringSocialMetacognition/assets/image/advisor3.png"}],"blockCount":4,"blockStructure":{"0":0,"1":6,"2":6},"blockLength":12,"practiceBlockCount":1,"practiceBlockStructure":{"0":0,"1":12,"2":0},"practiceBlockLength":12,"preTrialInterval":200,"preStimulusInterval":500,"stimulusDuration":200,"feedbackDuration":200,"questionnaireStack":[],"miscTrials":[{"view_history":"[{\"page_index\":0,\"viewing_time\":1398},{\"page_index\":1,\"viewing_time\":815}]","rt":2213,"trial_type":"instructions","trial_index":0,"time_elapsed":2213,"internal_node_id":"0.0-0.0"},{"view_history":"[{\"page_index\":0,\"viewing_time\":895}]","rt":895,"trial_type":"instructions","trial_index":2,"time_elapsed":5862,"internal_node_id":"0.0-2.0"},{"view_history":"[{\"page_index\":0,\"viewing_time\":671}]","rt":672,"trial_type":"instructions","trial_index":4,"time_elapsed":8626,"internal_node_id":"0.0-4.0"},{"view_history":"[{\"page_index\":0,\"viewing_time\":905}]","rt":905,"trial_type":"instructions","trial_index":8,"time_elapsed":15903,"internal_node_id":"0.0-6.0"},{"view_history":"[{\"page_index\":0,\"viewing_time\":839}]","rt":839,"trial_type":"instructions","trial_index":46,"time_elapsed":91591,"internal_node_id":"0.0-9.0"},{"view_history":"[{\"page_index\":0,\"viewing_time\":852}]","rt":854,"trial_type":"instructions","trial_index":47,"time_elapsed":92445,"internal_node_id":"0.0-10.0"},{"view_history":"[{\"page_index\":0,\"viewing_time\":1121}]","rt":1121,"trial_type":"instructions","trial_index":86,"time_elapsed":173514,"internal_node_id":"0.0-14.0"},{"view_history":"[{\"page_index\":0,\"viewing_time\":1106}]","rt":1106,"trial_type":"instructions","trial_index":123,"time_elapsed":250691,"internal_node_id":"0.0-16.0"},{"view_history":"[{\"page_index\":0,\"viewing_time\":957}]","rt":957,"trial_type":"instructions","trial_index":160,"time_elapsed":329198,"internal_node_id":"0.0-18.0"}],"trials":[{"type":1,"typeName":"force","block":1,"advisorId":0,"choice":[],"answer":[1,null],"confidence":[77,null],"whichSide":1,"practice":true,"feedback":true,"warnings":[],"stimulusDrawTime":[3027.0000000018626],"stimulusOffTime":[null],"fixationDrawTime":[2527.0000000018626],"id":1,"dotDifference":30,"grid":{"dotCountL":170,"dotCountR":230,"gridWidth":20,"gridHeight":20,"dotWidth":2,"dotHeight":2,"paddingX":6,"paddingY":6,"gridL":[[0,0,0,1,1,1,0,0,0,1,0,1,1,1,0,0,1,0,0,0],[1,0,0,0,0,1,1,0,0,1,1,1,0,0,0,0,0,0,0,0],[1,1,0,1,1,0,1,0,1,1,0,1,0,0,0,0,0,0,0,1],[1,0,0,0,0,1,1,0,0,0,1,1,0,0,1,0,1,0,0,1],[0,1,0,0,1,0,0,0,0,0,1,0,0,0,0,1,1,0,1,1],[1,0,0,1,1,0,0,0,0,1,0,0,0,0,0,1,0,0,0,0],[0,0,0,0,1,0,0,0,1,0,0,0,0,0,1,0,1,0,1,1],[0,0,0,1,1,0,0,1,1,0,1,0,1,0,0,1,0,0,1,0],[1,1,1,1,0,0,0,0,0,1,0,0,0,1,0,1,1,0,1,1],[1,0,0,1,1,0,0,0,0,1,0,0,0,0,1,0,0,0,0,0],[1,0,1,1,1,0,1,1,1,0,0,0,0,1,1,1,1,0,1,0],[0,0,0,0,0,0,1,1,0,1,0,0,0,0,1,0,0,0,0,0],[0,1,0,0,1,1,0,1,0,0,1,1,1,1,1,0,1,0,0,1],[1,0,1,0,0,0,1,1,1,0,0,1,0,1,0,0,1,1,1,0],[0,0,0,1,1,0,0,1,1,1,0,0,1,0,0,1,0,1,0,0],[1,1,1,1,1,1,0,0,0,1,0,1,0,1,1,0,1,0,1,0],[0,0,0,1,1,1,1,1,0,0,1,1,1,1,1,1,1,1,0,0],[0,1,1,1,1,1,1,0,1,1,1,0,1,0,0,0,0,1,0,1],[1,1,1,0,1,0,1,0,1,1,0,1,0,0,0,0,0,0,1,0],[0,0,1,0,0,1,1,0,0,0,1,1,0,1,0,0,0,0,0,1]],"gridR":[[1,1,0,0,0,0,1,0,1,1,1,0,1,1,1,0,1,0,1,1],[0,0,1,0,1,0,0,1,1,0,0,1,0,0,0,1,1,0,1,0],[0,1,1,1,1,1,1,0,1,1,1,0,1,1,0,0,1,1,1,1],[0,1,1,0,1,1,1,1,1,1,0,1,1,0,0,1,1,0,1,1],[0,0,1,1,0,0,0,0,0,1,1,1,1,1,1,1,1,0,1,0],[1,1,0,1,0,1,0,1,0,0,1,0,1,1,1,1,1,1,0,1],[1,1,1,1,0,1,1,0,1,1,1,1,1,1,1,0,1,1,1,0],[0,0,0,1,0,0,1,1,0,0,0,0,1,0,0,0,1,1,1,1],[0,1,0,0,0,0,1,1,1,0,0,1,0,1,1,0,0,1,1,1],[0,1,1,1,1,0,0,1,1,0,1,1,1,1,1,1,1,0,1,0],[0,1,0,1,0,0,1,0,1,0,0,0,0,1,1,0,0,0,1,1],[1,0,1,1,0,0,1,1,0,0,0,1,1,0,1,1,1,1,0,1],[0,1,1,1,0,0,0,0,1,1,0,1,1,0,0,1,1,0,1,0],[1,0,0,1,1,0,0,0,0,1,0,0,1,1,1,0,1,1,1,1],[0,0,0,1,1,0,0,1,0,1,1,1,1,1,1,1,0,0,0,1],[1,1,0,1,0,1,1,1,1,1,0,1,0,1,0,0,0,1,1,1],[0,1,0,1,1,1,1,1,0,1,1,1,0,0,0,1,1,1,1,0],[0,0,0,0,1,0,1,0,0,0,0,0,1,0,1,0,1,1,1,1],[1,0,0,1,1,0,1,1,1,0,1,0,0,0,0,1,1,1,1,1],[1,1,0,0,1,0,0,1,1,1,0,1,0,0,1,1,0,1,0,1]],"displayWidth":172,"displayHeight":172,"spacing":100,"style":{"gridBorderColor":"#ffffff","gridBorderWidth":"3","dotColor":"#ffffff","dotLineWidth":"1"}},"pluginResponse":[{"startTime":2327.000000048429,"rt":2550.000000046566,"response":[{"id":0,"name":"Left","answer":50,"prompt":"Left","lastChangedTime":null},{"id":1,"name":"Right","answer":"77","prompt":"Right","lastChangedTime":4201.000000117347}],"trial_type":"canvas-sliders-response","trial_index":1,"time_elapsed":4766,"internal_node_id":"0.0-1.0"}]},{"type":1,"typeName":"force","block":1,"advisorId":0,"choice":[],"answer":[1,null],"confidence":[29,null],"whichSide":1,"practice":true,"feedback":true,"warnings":[],"stimulusDrawTime":[6675.999999977648],"stimulusOffTime":[null],"fixationDrawTime":[6175.000000046566],"id":2,"dotDifference":30,"grid":{"dotCountL":170,"dotCountR":230,"gridWidth":20,"gridHeight":20,"dotWidth":2,"dotHeight":2,"paddingX":6,"paddingY":6,"gridL":[[0,1,1,0,0,1,1,1,0,1,0,0,0,0,0,1,1,0,0,1],[0,0,1,1,0,0,1,1,0,1,0,0,0,0,1,0,0,1,0,0],[1,0,0,0,0,0,0,0,1,1,1,1,0,0,0,1,1,0,0,0],[0,0,0,0,0,0,0,0,1,0,0,1,1,0,0,0,1,1,0,1],[1,0,1,1,1,0,0,1,1,0,1,0,0,0,1,1,1,0,1,0],[0,1,0,0,0,0,1,0,0,0,1,0,0,1,1,0,0,1,0,0],[0,1,0,1,1,1,1,1,1,1,0,0,1,0,0,1,1,1,1,1],[1,0,0,0,1,0,1,0,0,0,0,0,0,1,0,0,0,1,1,0],[1,0,1,0,0,0,0,1,0,1,1,0,1,1,1,0,1,0,0,1],[0,0,0,0,1,0,0,1,0,1,0,0,1,1,0,0,0,0,1,0],[0,1,1,0,1,1,1,0,1,0,0,1,0,1,1,0,1,0,0,0],[0,0,0,1,0,0,0,0,0,1,0,1,1,0,0,0,1,0,0,0],[0,0,1,1,0,0,0,0,0,0,1,1,1,0,0,0,1,0,0,0],[0,0,0,1,0,0,0,1,1,1,0,1,1,1,1,1,0,1,1,1],[1,0,0,0,1,1,1,1,0,0,0,1,0,1,0,1,1,1,1,1],[0,0,0,1,1,0,0,1,1,1,0,0,0,1,0,0,0,0,1,0],[0,1,1,0,0,1,0,0,0,1,0,0,1,0,0,0,1,1,1,1],[0,0,1,0,0,1,0,1,0,0,0,1,0,0,0,0,1,1,1,0],[0,1,0,1,0,0,0,0,0,1,0,0,1,0,1,0,1,0,0,1],[1,0,0,1,1,0,1,1,0,0,1,1,1,1,0,1,1,1,0,1]],"gridR":[[0,1,1,1,1,1,1,1,1,0,0,0,0,0,1,1,0,0,0,0],[0,1,1,1,1,1,0,1,0,1,0,1,0,0,0,0,1,0,1,1],[0,0,1,0,1,0,0,1,1,1,0,0,0,1,0,1,1,0,1,1],[1,1,0,1,0,1,1,1,1,0,0,1,1,1,1,0,1,0,1,0],[1,0,1,1,1,0,1,0,1,0,0,0,1,0,0,1,0,1,0,0],[1,1,0,0,1,1,0,0,0,1,1,0,1,1,1,0,0,1,0,1],[0,1,0,1,0,1,1,1,0,1,0,0,0,1,1,0,1,0,0,1],[0,1,1,0,1,0,1,1,1,1,1,1,0,1,0,0,0,1,1,1],[0,1,1,1,0,1,1,1,1,1,0,1,1,1,1,1,1,1,0,1],[1,1,0,0,0,1,0,1,1,0,1,0,0,1,0,0,0,0,0,0],[1,1,0,1,1,0,0,1,0,1,0,0,1,0,1,1,0,0,1,0],[1,0,1,0,1,1,1,0,0,1,0,1,0,0,0,0,0,1,1,1],[0,1,0,0,0,1,1,1,1,1,1,1,1,1,1,0,0,1,1,1],[0,1,0,1,1,1,1,0,1,0,1,1,1,1,1,1,0,0,1,1],[0,1,0,0,0,0,0,1,1,0,0,1,1,1,0,0,1,1,1,1],[0,1,1,1,0,1,1,1,0,1,1,0,1,1,1,1,0,0,0,0],[1,1,1,1,0,1,1,1,1,0,0,1,0,1,1,0,1,1,1,0],[1,0,1,1,1,0,0,1,0,1,1,1,0,1,0,1,1,1,1,0],[0,1,1,1,1,0,0,1,1,1,0,1,1,1,1,0,0,0,1,0],[1,1,1,1,1,0,1,1,1,1,0,0,0,0,0,1,0,0,1,0]],"displayWidth":172,"displayHeight":172,"spacing":100,"style":{"gridBorderColor":"#ffffff","gridBorderWidth":"3","dotColor":"#ffffff","dotLineWidth":"1"}},"pluginResponse":[{"startTime":5975.000000093132,"rt":1891.0000000614673,"response":[{"id":0,"name":"Left","answer":50,"prompt":"Left","lastChangedTime":null},{"id":1,"name":"Right","answer":"29","prompt":"Right","lastChangedTime":7430.000000167638}],"trial_type":"canvas-sliders-response","trial_index":3,"time_elapsed":7754,"internal_node_id":"0.0-3.0"}]},{"type":1,"typeName":"force","block":1,"advisorId":1,"choice":[],"answer":[1,0],"confidence":[48,8],"whichSide":1,"practice":true,"feedback":true,"warnings":["getConfidenceCategory: too few trials available to estimate confidence"],"stimulusDrawTime":[9439.000000013039],"stimulusOffTime":[null,null],"fixationDrawTime":[8939.000000013039],"id":3,"dotDifference":30,"grid":{"dotCountL":170,"dotCountR":230,"gridWidth":20,"gridHeight":20,"dotWidth":2,"dotHeight":2,"paddingX":6,"paddingY":6,"gridL":[[1,0,0,1,1,0,1,0,0,0,1,0,1,1,1,0,0,0,0,0],[1,0,0,1,1,1,1,1,0,1,1,1,1,1,0,1,0,1,1,0],[0,1,0,1,1,0,0,0,1,0,1,0,0,0,1,0,1,1,1,1],[1,1,1,0,1,0,0,1,0,0,0,0,0,0,0,0,1,0,0,1],[1,0,1,0,0,0,0,0,1,0,1,1,0,1,1,1,0,0,1,0],[0,1,0,1,1,0,0,0,0,0,0,0,0,0,1,0,1,0,0,0],[0,1,1,0,1,0,1,1,0,1,0,0,0,1,0,0,1,0,1,0],[1,1,0,1,0,0,0,1,0,1,0,0,1,0,1,0,0,0,1,0],[0,1,0,0,1,1,0,0,0,1,0,1,0,0,1,1,0,0,0,0],[1,0,0,1,1,1,0,1,1,0,0,0,0,0,1,0,1,1,1,1],[1,1,1,1,1,0,1,0,1,1,1,1,0,0,0,1,0,0,1,1],[1,0,0,0,0,0,0,0,1,1,0,0,1,1,1,0,0,0,0,0],[0,1,1,0,0,0,0,0,0,1,0,0,1,0,1,0,0,1,0,1],[1,1,1,1,0,0,1,1,1,0,0,1,1,0,0,1,0,0,1,0],[1,0,1,1,1,0,0,0,1,0,1,0,0,0,0,0,0,0,1,1],[0,0,0,0,0,0,1,0,1,0,0,1,1,0,0,1,0,1,1,1],[1,1,1,0,0,0,0,0,0,0,0,1,0,0,1,1,0,0,0,0],[1,1,0,0,0,0,1,0,1,0,0,1,0,0,0,0,0,0,1,0],[0,0,0,1,1,1,0,0,1,0,0,0,1,1,0,0,0,1,1,1],[0,0,0,0,0,1,1,1,1,0,0,0,0,0,1,0,1,1,0,1]],"gridR":[[0,0,1,1,0,1,1,1,0,0,1,1,1,0,0,0,1,1,0,1],[1,1,0,1,1,0,1,1,0,0,0,0,1,0,1,1,1,1,0,0],[0,0,1,0,1,1,1,1,0,1,0,1,0,1,0,0,1,1,0,0],[0,0,1,1,1,1,1,1,0,0,0,0,1,1,1,1,1,1,1,1],[1,0,0,0,0,1,1,1,1,0,0,1,1,1,1,0,0,0,0,1],[1,0,1,1,0,1,1,0,1,0,0,0,0,0,1,1,1,1,1,1],[1,0,1,0,0,1,0,1,0,0,1,0,1,0,1,1,0,0,0,0],[0,1,0,1,1,0,1,1,1,1,1,1,1,1,1,1,1,0,1,1],[1,0,0,1,0,1,1,1,0,0,1,1,1,1,1,0,0,1,0,0],[0,0,0,1,0,1,1,1,0,0,1,0,0,1,1,1,1,1,1,0],[0,1,0,1,0,1,1,1,0,0,0,1,0,1,1,0,1,0,1,1],[1,0,0,1,0,1,1,0,0,1,1,0,1,0,1,1,1,1,1,1],[1,0,0,0,1,1,1,1,1,1,0,0,0,0,1,1,0,1,1,1],[1,1,0,1,0,0,1,0,0,1,0,0,1,1,1,1,1,1,1,0],[0,0,1,1,1,0,0,0,1,0,1,1,0,1,1,0,0,0,0,1],[1,0,1,0,1,1,1,0,0,0,1,0,0,1,1,1,1,0,1,0],[0,1,1,1,0,1,0,0,1,1,1,1,1,1,0,1,1,0,1,1],[1,0,1,0,1,0,0,0,1,1,1,1,1,0,0,0,0,1,0,0],[0,1,0,1,0,1,1,1,0,0,1,1,0,1,1,0,1,1,1,1],[1,1,0,1,0,1,1,1,0,0,1,0,1,1,1,0,0,1,0,1]],"displayWidth":172,"displayHeight":172,"spacing":100,"style":{"gridBorderColor":"#ffffff","gridBorderWidth":"3","dotColor":"#ffffff","dotLineWidth":"1"}},"pluginResponse":[{"startTime":8739.000000059605,"rt":2675.000000046566,"response":[{"id":0,"name":"Left","answer":50,"prompt":"Left","lastChangedTime":null},{"id":1,"name":"Right","answer":"48","prompt":"Right","lastChangedTime":10748.000000137836}],"trial_type":"canvas-sliders-response","trial_index":5,"time_elapsed":11303,"internal_node_id":"0.0-5.0-0.0"},{"choiceTime":0,"choice":1,"totalTime":2004.9999998882413,"image":"http://localhost:8080/ExploringSocialMetacognition/assets/image/advisor3.png","adviceTime":2004.9999998882413,"trial_type":"jspsych-jas-present-advice-choice","trial_index":6,"time_elapsed":13510,"internal_node_id":"0.0-5.0-1.0"},{"startTime":13623.000000137836,"rt":1285.999999847263,"response":[{"id":0,"name":"Left","answer":8,"prompt":"Left","lastChangedTime":14351.000000024214},{"id":1,"name":"Right","answer":"50","prompt":"Right","lastChangedTime":null}],"trial_type":"canvas-sliders-response","trial_index":7,"time_elapsed":14799,"internal_node_id":"0.0-5.0-2.0"}],"confidenceCategory":1,"advisorAgrees":false},{"type":1,"typeName":"force","block":1,"advisorId":1,"choice":[],"answer":[1,0],"confidence":[27,0],"whichSide":1,"practice":true,"feedback":true,"warnings":["getConfidenceCategory: too few trials available to estimate confidence"],"stimulusDrawTime":[16716.0000000149],"stimulusOffTime":[901.0000000707805,null],"fixationDrawTime":[16216.999999945983],"id":4,"dotDifference":27,"grid":{"dotCountL":173,"dotCountR":227,"gridWidth":20,"gridHeight":20,"dotWidth":2,"dotHeight":2,"paddingX":6,"paddingY":6,"gridL":[[0,0,0,1,0,0,0,0,0,0,1,0,0,0,1,0,1,1,0,0],[1,0,1,1,0,0,1,0,1,1,0,0,0,0,0,0,0,0,1,1],[0,1,0,0,0,0,1,0,0,1,0,1,1,0,0,0,1,0,1,1],[1,0,0,0,1,1,0,1,0,1,1,0,1,0,0,0,0,0,1,1],[0,0,1,1,0,1,1,0,0,0,0,0,0,1,0,0,1,1,1,0],[1,0,0,1,0,0,1,0,1,1,1,1,0,1,0,1,1,1,0,0],[1,0,0,1,0,0,0,0,1,1,0,1,0,0,0,1,1,0,0,0],[1,1,0,0,0,1,0,1,0,0,0,0,0,1,0,1,1,1,0,1],[1,1,1,1,0,0,1,0,0,0,0,1,0,0,0,0,1,1,1,1],[0,0,0,0,1,0,1,0,1,1,1,0,0,0,1,1,0,1,0,0],[0,1,0,0,0,0,0,1,0,1,0,1,0,0,1,1,1,0,1,1],[0,0,1,0,1,1,0,0,1,1,1,0,0,0,0,1,0,0,0,1],[0,0,1,0,1,1,0,0,0,0,0,0,1,0,1,0,0,1,0,0],[0,0,0,1,1,0,0,0,1,1,0,1,1,1,0,1,0,0,0,1],[1,0,1,0,0,1,0,0,0,0,1,0,1,1,0,1,0,1,0,1],[0,0,1,1,1,0,1,1,1,0,0,0,1,1,1,0,0,1,1,0],[1,1,1,0,1,1,0,0,0,0,1,1,0,1,0,0,1,0,1,0],[1,1,1,1,0,0,0,0,0,1,0,0,1,1,1,0,1,1,1,1],[1,1,1,0,0,1,1,1,0,1,1,0,0,0,0,1,1,0,0,0],[1,0,0,0,0,1,1,0,0,0,0,1,0,1,0,0,0,0,0,1]],"gridR":[[0,0,1,1,0,1,1,0,1,1,1,0,0,0,1,1,0,0,1,1],[1,1,0,1,0,0,1,1,1,1,1,1,1,1,1,1,1,1,0,1],[1,1,0,0,0,0,1,1,1,1,1,1,0,0,1,0,0,1,1,0],[1,1,1,0,1,0,1,1,1,1,1,1,1,1,1,1,0,1,0,1],[1,0,0,0,0,0,1,0,1,1,0,0,1,0,0,1,1,0,0,0],[0,0,0,1,0,1,1,1,1,1,0,0,0,1,1,1,0,0,0,0],[1,0,1,1,1,1,0,0,1,0,1,0,0,0,0,0,1,1,0,1],[0,0,1,0,1,1,1,1,1,0,1,0,1,1,0,0,1,1,1,1],[0,1,1,1,1,1,0,0,0,1,0,1,0,1,0,0,1,0,1,0],[1,1,1,1,1,0,1,1,1,0,1,1,0,1,1,1,1,1,0,1],[1,0,0,1,0,1,1,0,0,1,1,0,0,0,0,1,0,1,0,1],[1,1,1,1,1,0,0,1,1,1,1,1,0,0,1,1,0,0,1,1],[0,0,1,1,0,0,1,1,1,1,1,0,0,0,0,1,0,0,1,0],[1,0,0,1,1,1,0,1,1,1,1,0,0,0,1,1,0,0,0,1],[0,1,0,1,0,1,1,0,1,1,1,1,1,1,0,0,1,1,1,1],[1,0,1,1,0,0,1,1,1,1,0,1,0,0,1,1,1,1,0,1],[1,0,1,0,1,1,1,0,1,0,1,0,0,0,1,0,1,1,0,0],[0,1,1,0,0,0,0,0,0,0,1,0,1,1,0,1,0,1,1,0],[0,0,1,0,0,1,0,1,0,1,0,0,0,1,1,0,0,1,1,0],[1,1,1,0,0,0,1,0,0,1,1,1,0,1,1,1,1,1,0,0]],"displayWidth":172,"displayHeight":172,"spacing":100,"style":{"gridBorderColor":"#ffffff","gridBorderWidth":"3","dotColor":"#ffffff","dotLineWidth":"1"}},"pluginResponse":[{"startTime":16016.000000061467,"rt":2328.999999910593,"response":[{"id":0,"name":"Left","answer":50,"prompt":"Left","lastChangedTime":null},{"id":1,"name":"Right","answer":"27","prompt":"Right","lastChangedTime":17857.00000007637}],"stimulusOffTime":901.0000000707805,"trial_type":"canvas-sliders-response","trial_index":9,"time_elapsed":18233,"internal_node_id":"0.0-7.0-0.0"},{"choiceTime":0,"choice":1,"totalTime":2001.9999998621643,"image":"http://localhost:8080/ExploringSocialMetacognition/assets/image/advisor3.png","adviceTime":2001.9999998621643,"trial_type":"jspsych-jas-present-advice-choice","trial_index":10,"time_elapsed":20237,"internal_node_id":"0.0-7.0-1.0"},{"startTime":20349.00000016205,"rt":1240.999999921769,"response":[{"id":0,"name":"Left","answer":0,"prompt":"Left","lastChangedTime":21057.000000029802},{"id":1,"name":"Right","answer":"50","prompt":"Right","lastChangedTime":null}],"trial_type":"canvas-sliders-response","trial_index":11,"time_elapsed":21479,"internal_node_id":"0.0-7.0-2.0"}],"confidenceCategory":1,"advisorAgrees":false},{"type":1,"typeName":"force","block":1,"advisorId":1,"choice":[],"answer":[1,1],"confidence":[14,58],"whichSide":1,"practice":true,"feedback":true,"warnings":["getConfidenceCategory: too few trials available to estimate confidence"],"stimulusDrawTime":[22492.00000008568],"stimulusOffTime":[901.0000000707805,null],"fixationDrawTime":[21992.00000008568],"id":5,"dotDifference":24,"grid":{"dotCountL":176,"dotCountR":224,"gridWidth":20,"gridHeight":20,"dotWidth":2,"dotHeight":2,"paddingX":6,"paddingY":6,"gridL":[[0,1,1,0,1,0,0,0,1,0,0,1,1,0,0,0,0,0,1,0],[0,0,1,1,1,1,0,0,1,0,0,0,0,0,1,1,0,1,0,0],[1,1,0,0,0,0,0,0,0,0,0,0,0,1,0,0,0,1,0,1],[1,0,1,0,0,0,1,1,1,0,1,0,1,1,0,1,0,0,1,0],[1,1,0,0,0,1,1,1,0,1,1,1,0,0,0,0,0,1,0,0],[0,0,0,0,1,1,0,1,1,0,0,1,1,1,0,0,0,0,1,1],[0,0,1,1,0,0,0,0,0,1,1,1,1,0,0,0,1,1,0,1],[1,0,0,1,0,0,0,1,1,1,0,0,1,0,1,0,1,0,0,1],[0,0,1,1,0,1,1,1,1,1,0,0,0,0,0,0,0,1,1,1],[1,0,0,0,1,1,1,0,1,0,0,1,0,1,0,1,0,0,0,1],[1,1,0,1,0,0,0,0,1,0,0,1,0,0,1,1,1,0,0,1],[0,1,0,1,0,1,0,1,1,0,1,1,1,0,0,1,0,0,1,0],[0,0,1,0,1,0,0,1,1,0,1,1,1,0,1,0,1,1,0,0],[1,0,1,0,1,1,0,1,1,1,1,0,0,0,1,0,1,1,0,1],[0,0,0,1,0,1,1,1,0,0,0,0,0,0,1,0,0,1,0,1],[0,0,1,1,1,1,1,0,0,0,0,0,1,1,0,0,1,0,0,1],[0,1,1,0,0,1,0,0,1,1,1,1,0,1,0,0,1,1,1,0],[1,1,1,0,0,0,0,0,1,0,0,1,0,0,0,0,1,0,0,0],[0,1,1,0,0,0,1,1,1,1,0,1,1,1,1,0,0,1,0,0],[0,0,0,0,0,1,1,1,0,0,0,0,1,1,0,0,0,0,0,1]],"gridR":[[0,1,0,0,0,1,1,1,1,1,1,1,0,1,1,0,0,0,0,0],[1,1,0,0,1,1,1,0,0,1,0,0,0,1,1,1,1,1,0,0],[0,1,0,0,0,0,1,0,0,1,1,1,1,1,1,0,1,1,1,1],[1,1,1,1,1,1,0,1,0,0,0,1,1,0,1,1,1,0,1,1],[1,0,1,1,1,0,0,1,0,1,1,0,1,0,1,1,1,0,0,1],[0,1,1,1,1,1,1,1,1,1,1,1,1,0,1,1,0,1,0,0],[1,0,0,0,1,0,1,0,0,1,0,1,0,1,0,1,1,0,0,0],[1,1,1,0,1,0,0,1,1,1,1,1,0,0,1,1,1,1,0,1],[1,1,1,1,0,0,1,0,1,1,1,0,1,0,0,0,1,1,0,0],[0,1,0,1,1,0,0,1,0,1,0,1,1,0,0,1,0,1,1,0],[0,0,1,1,1,1,1,1,1,0,1,0,0,1,1,0,0,0,0,1],[1,0,0,0,1,1,1,0,0,0,0,1,1,1,0,1,1,1,0,1],[1,1,0,1,1,0,0,1,1,1,1,0,0,0,1,1,1,0,1,1],[0,1,1,0,0,1,1,1,1,0,0,1,1,0,0,0,0,1,0,1],[0,1,1,1,1,1,1,1,0,0,1,1,1,1,1,1,1,0,1,0],[0,0,0,0,1,0,1,1,0,1,1,0,0,1,0,0,1,1,0,0],[0,0,0,1,1,0,1,1,1,0,1,1,0,1,0,0,1,0,1,0],[0,1,0,1,1,0,1,1,0,0,1,0,0,1,1,0,0,1,0,0],[1,0,1,0,0,1,0,1,1,0,0,1,0,0,1,0,0,0,1,1],[1,1,1,1,0,0,1,1,0,0,0,0,0,1,1,1,0,1,1,0]],"displayWidth":172,"displayHeight":172,"spacing":100,"style":{"gridBorderColor":"#ffffff","gridBorderWidth":"3","dotColor":"#ffffff","dotLineWidth":"1"}},"pluginResponse":[{"startTime":21790.999999968335,"rt":2435.0000000558794,"response":[{"id":0,"name":"Left","answer":50,"prompt":"Left","lastChangedTime":null},{"id":1,"name":"Right","answer":"14","prompt":"Right","lastChangedTime":23739.999999990687}],"stimulusOffTime":901.0000000707805,"trial_type":"canvas-sliders-response","trial_index":12,"time_elapsed":24115,"internal_node_id":"0.0-7.0-0.1"},{"choiceTime":0,"choice":1,"totalTime":2002.000000094995,"image":"http://localhost:8080/ExploringSocialMetacognition/assets/image/advisor3.png","adviceTime":2002.000000094995,"trial_type":"jspsych-jas-present-advice-choice","trial_index":13,"time_elapsed":26117,"internal_node_id":"0.0-7.0-1.1"},{"startTime":26229.999999981374,"rt":1148.0000000447035,"response":[{"id":0,"name":"Left","answer":50,"prompt":"Left","lastChangedTime":null},{"id":1,"name":"Right","answer":"58","prompt":"Right","lastChangedTime":26864.000000059605}],"trial_type":"canvas-sliders-response","trial_index":14,"time_elapsed":27267,"internal_node_id":"0.0-7.0-2.1"}],"confidenceCategory":1,"advisorAgrees":true},{"block":1,"advisorId":1,"choice":[],"answer":[0,0],"confidence":[59,100],"whichSide":0,"practice":true,"feedback":true,"warnings":["getConfidenceCategory: too few trials available to estimate confidence"],"stimulusDrawTime":[28280.99999995902],"stimulusOffTime":[901.0000000707805,null],"fixationDrawTime":[27780.99999995902],"id":6,"dotDifference":21,"grid":{"dotCountL":221,"dotCountR":179,"gridWidth":20,"gridHeight":20,"dotWidth":2,"dotHeight":2,"paddingX":6,"paddingY":6,"gridL":[[0,0,0,0,1,1,1,1,1,1,1,1,0,0,0,0,0,1,0,0],[0,1,1,1,1,0,1,0,0,1,1,0,0,0,0,0,1,0,1,1],[0,1,0,1,1,0,0,1,1,0,1,0,1,1,0,0,0,1,1,1],[1,0,1,1,0,1,0,1,1,1,0,1,1,1,1,0,1,1,1,1],[0,0,1,0,1,1,1,1,1,1,0,0,1,0,0,1,1,1,1,0],[0,0,1,1,1,0,1,1,1,1,0,0,0,0,1,1,1,1,1,1],[1,0,1,0,0,1,0,1,1,0,0,0,1,0,0,1,0,1,0,1],[1,0,1,1,1,0,1,0,0,1,0,1,0,0,1,0,1,0,0,1],[1,0,1,0,0,1,1,1,1,0,1,1,1,1,1,1,1,1,0,0],[1,1,1,0,0,0,1,0,1,0,1,1,1,0,0,0,1,0,0,0],[0,1,1,1,1,1,0,1,1,0,0,1,0,0,0,0,1,1,0,1],[1,1,0,1,0,0,0,1,1,1,0,1,1,0,1,0,1,0,0,1],[1,0,0,0,1,1,0,1,1,0,1,1,1,1,0,0,1,0,1,1],[0,1,0,0,0,1,1,1,0,0,1,0,1,1,0,0,0,1,1,1],[1,1,0,1,1,1,0,1,0,0,1,1,0,1,1,1,1,1,0,1],[1,0,0,1,1,0,1,0,1,1,0,1,0,1,0,0,0,1,0,1],[0,0,1,1,1,0,1,1,0,0,0,0,1,0,1,1,0,0,0,1],[1,0,0,1,0,0,1,0,1,1,0,1,1,0,1,1,1,1,1,0],[1,1,0,0,0,0,1,1,1,0,0,0,0,1,1,1,1,0,1,1],[1,0,0,1,0,0,0,1,1,0,0,1,0,0,0,1,1,1,1,0]],"gridR":[[0,0,1,0,0,1,1,0,1,1,1,1,1,1,0,1,1,1,1,1],[1,1,0,1,0,1,1,0,1,1,0,1,0,0,1,1,0,1,0,1],[1,1,0,0,1,1,0,1,0,0,0,0,1,1,1,1,0,1,0,1],[0,1,1,0,0,1,0,0,0,0,0,0,0,1,0,0,0,0,0,0],[0,0,1,0,1,0,1,0,1,0,1,1,1,1,0,0,1,1,1,0],[0,0,0,0,0,0,0,0,0,1,1,1,0,0,1,1,0,0,1,0],[0,1,0,1,1,1,0,0,1,0,1,1,0,1,0,1,1,0,1,1],[1,0,0,0,0,0,1,1,0,0,0,1,1,0,0,0,1,0,1,0],[0,1,1,1,1,0,0,0,0,0,0,0,0,1,1,0,0,0,1,1],[1,1,0,0,0,0,1,0,1,1,0,0,1,0,0,1,0,0,1,1],[1,1,1,0,1,0,0,1,0,0,0,1,0,0,0,0,0,1,0,1],[0,0,1,0,0,0,1,0,1,1,1,0,1,1,0,1,0,0,1,1],[1,0,1,0,1,1,1,0,0,0,0,0,1,0,0,0,0,0,1,0],[1,1,1,0,0,1,0,1,1,0,0,1,0,1,1,0,0,1,0,1],[0,1,1,0,1,1,1,0,0,1,0,0,1,0,0,0,0,0,1,0],[0,0,0,0,1,1,0,0,0,1,0,0,0,0,0,1,0,1,0,1],[1,0,1,0,0,0,0,0,1,1,0,0,1,0,0,1,0,0,1,0],[1,0,0,1,0,1,0,0,0,0,0,0,1,0,1,1,1,0,1,0],[0,0,1,1,0,1,1,1,0,0,1,0,0,0,1,1,0,1,1,0],[1,1,1,0,0,1,0,0,0,1,0,1,1,1,0,0,0,0,1,1]],"displayWidth":172,"displayHeight":172,"spacing":100,"style":{"gridBorderColor":"#ffffff","gridBorderWidth":"3","dotColor":"#ffffff","dotLineWidth":"1"}},"pluginResponse":[{"startTime":27580.000000074506,"rt":2146.9999998807907,"response":[{"id":0,"name":"Left","answer":59,"prompt":"Left","lastChangedTime":29314.00000001304},{"id":1,"name":"Right","answer":"50","prompt":"Right","lastChangedTime":null}],"stimulusOffTime":901.0000000707805,"trial_type":"canvas-sliders-response","trial_index":15,"time_elapsed":29616,"internal_node_id":"0.0-7.0-0.2"},{"choiceTime":0,"choice":1,"totalTime":2001.9999998621643,"image":"http://localhost:8080/ExploringSocialMetacognition/assets/image/advisor3.png","adviceTime":2001.9999998621643,"trial_type":"jspsych-jas-present-advice-choice","trial_index":16,"time_elapsed":31618,"internal_node_id":"0.0-7.0-1.2"},{"startTime":31729.999999981374,"rt":871.0000000428408,"response":[{"id":0,"name":"Left","answer":100,"prompt":"Left","lastChangedTime":32121.00000004284},{"id":1,"name":"Right","answer":"50","prompt":"Right","lastChangedTime":null}],"trial_type":"canvas-sliders-response","trial_index":17,"time_elapsed":32490,"internal_node_id":"0.0-7.0-2.2"}],"confidenceCategory":1,"advisorAgrees":true},{"block":1,"advisorId":1,"choice":[],"answer":[0,0],"confidence":[52,100],"whichSide":0,"practice":true,"feedback":true,"warnings":["getConfidenceCategory: too few trials available to estimate confidence"],"stimulusDrawTime":[33503.00000002608],"stimulusOffTime":[899.9999999068677,null],"fixationDrawTime":[33003.00000002608],"id":7,"dotDifference":18,"grid":{"dotCountL":218,"dotCountR":182,"gridWidth":20,"gridHeight":20,"dotWidth":2,"dotHeight":2,"paddingX":6,"paddingY":6,"gridL":[[1,0,0,1,1,0,1,1,1,0,0,0,0,1,1,1,1,1,1,0],[0,0,1,1,0,0,0,1,1,1,0,0,0,0,1,0,0,0,0,0],[0,0,1,0,1,0,0,0,0,0,1,0,0,0,0,1,1,1,0,0],[0,0,1,0,0,0,1,1,1,0,1,1,1,0,0,1,1,1,1,0],[1,0,0,1,1,0,1,0,1,1,1,1,0,0,0,1,1,1,0,1],[0,1,1,1,0,0,1,1,0,0,1,1,0,1,1,0,0,1,0,0],[1,0,1,1,1,0,0,0,1,1,1,0,0,0,1,0,0,0,1,0],[1,1,1,1,1,0,0,1,1,1,1,1,1,0,1,1,0,0,1,1],[1,0,1,1,0,0,0,1,0,1,0,1,1,1,1,0,1,0,1,0],[0,1,0,1,0,1,0,1,1,1,1,1,1,0,1,0,0,1,1,0],[1,0,0,1,0,1,1,1,1,0,0,1,0,1,1,1,0,1,1,1],[0,0,1,1,1,0,0,1,1,1,0,1,0,1,1,1,0,0,1,0],[1,1,1,1,0,1,1,0,1,1,1,0,1,1,1,0,0,0,1,1],[1,0,0,0,1,1,0,0,0,1,0,1,0,1,1,1,0,0,1,0],[1,1,1,0,0,0,1,0,0,1,1,1,0,1,1,1,1,1,1,0],[0,1,1,0,0,0,1,1,0,1,0,0,0,1,0,0,0,0,0,1],[1,1,1,1,1,1,1,1,1,1,1,0,1,0,1,0,0,1,1,0],[0,1,0,1,1,0,1,0,0,0,1,0,1,1,0,0,1,1,0,1],[1,1,0,0,0,0,0,1,1,1,1,0,1,1,0,0,1,0,1,1],[0,0,0,1,1,1,1,0,1,0,1,0,0,1,1,1,1,0,0,1]],"gridR":[[1,1,0,0,0,0,1,1,1,0,0,1,0,1,1,0,0,1,1,0],[1,1,0,1,1,0,0,0,0,1,0,1,1,0,0,1,0,1,1,1],[1,1,0,1,0,1,0,0,1,0,1,1,0,1,0,1,0,1,1,1],[1,0,1,0,0,0,1,0,0,0,0,1,1,0,1,0,0,0,0,1],[0,1,1,0,0,0,1,0,0,0,0,0,0,0,0,0,0,1,0,1],[0,1,0,1,0,0,0,1,0,1,0,0,0,1,1,0,1,1,0,1],[1,1,0,1,0,0,1,0,1,0,1,1,0,1,1,1,0,0,0,0],[0,0,1,1,1,1,1,1,0,1,0,0,1,1,0,0,1,0,0,1],[1,1,1,1,0,1,0,0,1,1,1,0,0,0,0,1,1,1,0,0],[1,1,0,0,1,0,1,1,0,1,0,0,1,1,0,1,1,0,1,0],[0,1,0,0,0,1,0,1,0,1,1,1,0,1,0,1,0,0,1,1],[0,0,1,0,0,1,1,1,1,0,1,0,1,1,1,1,0,1,1,1],[1,1,1,0,0,1,0,1,1,1,1,0,0,1,0,1,1,0,0,1],[0,0,1,1,0,0,0,0,0,1,1,0,0,0,0,1,1,0,0,0],[0,1,1,1,0,1,1,0,0,0,1,0,1,1,1,0,0,0,0,0],[0,0,0,1,1,0,1,0,0,0,1,0,1,0,0,0,0,1,0,0],[0,0,1,0,0,0,0,1,0,0,0,1,0,0,0,0,1,0,1,1],[0,0,0,0,0,0,0,1,0,0,0,1,1,0,0,1,0,0,0,1],[0,0,0,0,0,1,0,0,1,0,1,1,1,1,1,1,1,0,0,1],[1,0,0,1,0,1,0,0,0,1,0,0,0,0,0,1,1,1,0,1]],"displayWidth":172,"displayHeight":172,"spacing":100,"style":{"gridBorderColor":"#ffffff","gridBorderWidth":"3","dotColor":"#ffffff","dotLineWidth":"1"}},"pluginResponse":[{"startTime":32803.00000007264,"rt":2054.9999999348074,"response":[{"id":0,"name":"Left","answer":52,"prompt":"Left","lastChangedTime":34388.00000003539},{"id":1,"name":"Right","answer":"50","prompt":"Right","lastChangedTime":null}],"stimulusOffTime":899.9999999068677,"trial_type":"canvas-sliders-response","trial_index":18,"time_elapsed":34746,"internal_node_id":"0.0-7.0-0.3"},{"choiceTime":0,"choice":1,"totalTime":2001.9999998621643,"image":"http://localhost:8080/ExploringSocialMetacognition/assets/image/advisor3.png","adviceTime":2001.9999998621643,"trial_type":"jspsych-jas-present-advice-choice","trial_index":19,"time_elapsed":36750,"internal_node_id":"0.0-7.0-1.3"},{"startTime":36861.00000003353,"rt":1263.0000000353903,"response":[{"id":0,"name":"Left","answer":100,"prompt":"Left","lastChangedTime":37655.00000002794},{"id":1,"name":"Right","answer":"50","prompt":"Right","lastChangedTime":null}],"trial_type":"canvas-sliders-response","trial_index":20,"time_elapsed":38013,"internal_node_id":"0.0-7.0-2.3"}],"confidenceCategory":1,"advisorAgrees":true},{"block":1,"advisorId":1,"choice":[],"answer":[1,0],"confidence":[0,11],"whichSide":0,"practice":true,"feedback":true,"warnings":["getConfidenceCategory: too few trials available to estimate confidence"],"stimulusDrawTime":[39026.00000007078],"stimulusOffTime":[900.9999998379499,null],"fixationDrawTime":[38527.00000000186],"id":8,"dotDifference":15,"grid":{"dotCountL":215,"dotCountR":185,"gridWidth":20,"gridHeight":20,"dotWidth":2,"dotHeight":2,"paddingX":6,"paddingY":6,"gridL":[[1,0,1,1,0,0,0,1,1,1,1,1,0,0,1,1,0,1,1,1],[0,1,0,1,0,0,0,0,0,0,0,0,0,0,0,0,1,0,0,1],[0,0,1,1,1,0,0,1,1,0,0,1,1,1,1,1,0,1,1,1],[1,1,0,0,0,1,1,0,1,1,0,0,0,1,0,0,0,1,1,1],[1,0,0,0,0,0,1,0,1,1,1,1,1,0,0,0,0,1,1,1],[0,0,1,0,1,0,1,1,1,1,1,0,1,1,0,1,1,1,0,1],[0,0,0,0,1,1,1,1,1,0,1,1,0,1,0,1,1,1,1,1],[1,0,0,0,0,0,1,1,1,1,0,0,1,0,0,1,1,1,1,1],[1,1,0,1,0,1,0,1,0,0,1,1,0,0,0,0,1,1,0,1],[0,0,1,1,1,1,1,1,0,0,1,0,1,1,1,0,0,1,0,1],[0,0,0,0,0,1,1,1,1,1,1,1,0,1,1,0,1,1,0,1],[1,1,0,0,0,0,0,1,1,1,1,0,1,1,0,0,1,1,0,0],[1,0,0,1,0,1,0,1,1,1,1,0,0,0,1,1,1,0,1,0],[0,0,1,1,0,0,0,0,1,1,1,0,0,1,1,1,1,0,0,1],[0,1,0,1,1,0,1,0,1,1,1,1,1,0,1,1,1,0,0,0],[1,0,1,1,0,1,0,1,0,1,0,0,0,1,0,1,0,0,0,1],[0,0,1,1,1,1,1,0,0,0,1,1,1,0,0,1,1,1,0,0],[1,0,1,1,0,0,0,1,1,1,1,0,1,1,0,1,0,1,1,1],[0,0,1,0,1,1,0,1,0,0,1,1,1,0,0,0,0,0,0,1],[0,0,1,0,1,1,0,0,1,0,1,1,0,0,1,1,0,0,1,1]],"gridR":[[1,0,0,1,0,1,0,1,0,1,1,1,1,0,0,1,0,1,1,0],[0,1,1,0,1,0,0,0,0,0,0,0,0,0,1,0,0,0,1,0],[0,0,1,1,1,1,0,1,1,1,1,0,1,0,0,1,0,1,0,0],[0,0,1,1,0,1,1,0,0,1,0,1,0,0,1,0,1,0,1,0],[1,1,0,1,1,0,0,1,0,0,0,0,0,0,1,1,1,0,1,1],[0,1,0,1,0,0,1,0,0,0,1,0,0,1,0,0,0,0,0,0],[0,1,1,0,0,1,1,1,0,1,0,1,1,0,0,0,0,1,1,0],[1,0,1,1,0,1,0,0,1,1,0,0,1,1,1,0,0,0,1,1],[1,0,1,1,1,0,0,1,0,0,1,1,0,1,1,1,0,1,0,0],[0,0,0,1,0,0,1,0,1,1,1,0,0,1,0,1,1,1,1,0],[0,0,0,0,0,0,1,1,1,1,1,1,0,0,0,1,1,0,1,0],[0,1,0,1,1,0,0,1,0,0,1,1,0,0,0,1,0,1,1,1],[0,0,1,1,1,0,1,1,1,0,1,1,1,1,0,0,1,0,0,0],[0,1,1,1,1,1,0,0,1,1,1,0,0,0,0,1,0,1,1,0],[1,0,1,0,1,1,1,0,0,1,0,1,0,1,0,1,1,1,1,0],[1,0,1,0,0,0,0,0,1,0,1,1,0,0,1,0,0,0,0,0],[1,0,1,0,0,0,1,0,0,1,1,0,1,1,0,0,0,1,0,0],[1,1,0,1,0,0,1,0,1,0,1,1,0,0,0,0,1,0,0,0],[0,0,1,1,0,0,0,0,0,1,0,1,0,0,0,0,0,0,0,1],[1,0,0,1,1,0,1,1,1,0,0,1,1,1,1,0,1,0,0,1]],"displayWidth":172,"displayHeight":172,"spacing":100,"style":{"gridBorderColor":"#ffffff","gridBorderWidth":"3","dotColor":"#ffffff","dotLineWidth":"1"}},"pluginResponse":[{"startTime":38326.00000011735,"rt":2917.9999998304993,"response":[{"id":0,"name":"Left","answer":50,"prompt":"Left","lastChangedTime":null},{"id":1,"name":"Right","answer":"0","prompt":"Right","lastChangedTime":40719.99999997206}],"stimulusOffTime":900.9999998379499,"trial_type":"canvas-sliders-response","trial_index":21,"time_elapsed":41133,"internal_node_id":"0.0-7.0-0.4"},{"choiceTime":0,"choice":1,"totalTime":2003.000000026077,"image":"http://localhost:8080/ExploringSocialMetacognition/assets/image/advisor3.png","adviceTime":2003.000000026077,"trial_type":"jspsych-jas-present-advice-choice","trial_index":22,"time_elapsed":43136,"internal_node_id":"0.0-7.0-1.4"},{"startTime":43248.000000137836,"rt":3261.9999998714775,"response":[{"id":0,"name":"Left","answer":11,"prompt":"Left","lastChangedTime":46067.000000039116},{"id":1,"name":"Right","answer":"50","prompt":"Right","lastChangedTime":null}],"trial_type":"canvas-sliders-response","trial_index":23,"time_elapsed":46399,"internal_node_id":"0.0-7.0-2.4"}],"confidenceCategory":1,"advisorAgrees":true},{"block":1,"advisorId":1,"choice":[],"answer":[0,0],"confidence":[62,100],"whichSide":0,"practice":true,"feedback":true,"warnings":["getConfidenceCategory: too few trials available to estimate confidence"],"stimulusDrawTime":[47412.000000011176],"stimulusOffTime":[901.0000000707805,null],"fixationDrawTime":[46912.000000011176],"id":9,"dotDifference":18,"grid":{"dotCountL":218,"dotCountR":182,"gridWidth":20,"gridHeight":20,"dotWidth":2,"dotHeight":2,"paddingX":6,"paddingY":6,"gridL":[[0,1,0,0,1,1,0,1,1,0,1,0,1,1,1,1,0,0,0,1],[1,1,1,1,0,0,1,0,1,1,0,1,1,0,0,0,1,1,0,1],[0,1,0,1,0,1,1,1,1,1,1,1,0,0,1,1,0,1,1,1],[0,1,0,0,1,1,1,0,0,0,1,0,0,1,1,1,1,1,1,1],[1,0,1,0,0,1,1,1,0,1,0,1,1,1,1,0,0,0,0,0],[1,0,0,1,1,1,1,1,1,1,1,1,1,1,1,1,0,0,0,1],[0,0,1,0,0,0,1,0,1,1,0,1,0,1,0,1,0,1,0,0],[0,1,1,0,1,1,1,1,0,1,0,0,1,0,0,1,1,0,1,0],[1,1,0,0,1,0,0,1,1,1,1,1,0,0,0,1,0,1,1,1],[1,1,1,0,0,0,1,0,1,0,0,1,1,1,1,1,1,1,0,0],[1,1,0,0,0,0,1,1,1,0,0,0,0,1,1,1,1,0,0,1],[0,1,1,1,1,0,0,1,0,0,1,0,0,0,1,0,0,0,1,1],[0,1,0,1,0,1,0,0,1,0,0,1,1,1,0,0,1,1,0,0],[0,0,0,0,0,1,0,1,0,0,0,1,1,0,1,0,1,1,0,1],[0,1,0,1,0,0,1,1,1,1,0,0,1,0,1,1,1,1,1,0],[1,0,1,1,0,1,1,0,0,1,0,1,0,1,1,1,0,1,1,0],[0,1,1,1,1,1,0,0,1,0,0,1,1,0,1,1,0,1,1,0],[1,0,0,0,1,0,1,0,0,0,1,0,0,0,0,0,0,0,1,1],[1,0,1,1,1,1,1,1,0,1,1,0,0,1,1,1,1,1,0,0],[0,1,0,0,1,1,0,0,0,1,0,1,1,0,0,0,0,1,1,1]],"gridR":[[0,1,1,1,0,0,1,0,0,1,1,0,1,0,1,0,1,1,1,0],[1,0,0,1,0,0,0,0,0,0,0,0,0,0,0,0,0,0,1,0],[1,1,0,0,0,0,0,1,0,0,1,0,1,0,0,1,0,0,0,1],[1,0,0,1,0,0,0,1,0,0,0,0,1,0,0,1,1,1,1,1],[0,0,1,0,0,0,1,0,0,0,1,1,1,0,1,1,0,1,1,0],[1,0,1,0,0,0,1,0,1,1,1,1,1,1,0,0,0,1,1,0],[0,1,1,0,1,0,1,0,1,1,1,0,0,1,1,1,1,1,1,1],[1,0,1,0,1,1,1,0,1,1,1,0,0,0,0,1,1,0,0,0],[1,0,0,0,0,0,0,0,0,1,0,0,0,0,1,0,1,0,0,0],[0,0,0,1,1,1,1,1,0,1,1,1,0,0,0,1,0,0,1,0],[0,0,1,1,1,1,1,0,0,0,0,0,0,1,1,0,0,1,0,0],[0,1,1,1,0,1,0,0,1,1,0,0,1,0,1,1,0,1,1,0],[1,1,0,0,1,0,1,1,0,0,0,0,1,0,0,1,0,0,1,1],[1,1,1,0,0,0,0,1,1,0,0,0,0,1,1,0,1,1,0,1],[1,1,1,1,1,0,0,1,1,0,1,0,0,1,0,0,1,1,0,0],[0,0,0,0,0,1,0,0,0,1,0,1,0,0,1,0,1,0,1,1],[0,1,0,1,1,1,1,1,0,0,0,1,1,0,0,1,1,1,1,0],[1,1,0,0,0,0,1,0,1,0,1,0,1,1,1,0,0,1,0,1],[1,1,0,1,1,0,0,1,1,0,0,1,0,0,0,0,0,0,1,1],[0,1,1,1,0,1,0,1,0,0,1,1,0,0,0,0,0,0,0,0]],"displayWidth":172,"displayHeight":172,"spacing":100,"style":{"gridBorderColor":"#ffffff","gridBorderWidth":"3","dotColor":"#ffffff","dotLineWidth":"1"}},"pluginResponse":[{"startTime":46712.00000005774,"rt":2070.9999999962747,"response":[{"id":0,"name":"Left","answer":62,"prompt":"Left","lastChangedTime":48381.999999983236},{"id":1,"name":"Right","answer":"50","prompt":"Right","lastChangedTime":null}],"stimulusOffTime":901.0000000707805,"trial_type":"canvas-sliders-response","trial_index":24,"time_elapsed":48671,"internal_node_id":"0.0-7.0-0.5"},{"choiceTime":0,"choice":1,"totalTime":2002.000000094995,"image":"http://localhost:8080/ExploringSocialMetacognition/assets/image/advisor3.png","adviceTime":2002.000000094995,"trial_type":"jspsych-jas-present-advice-choice","trial_index":25,"time_elapsed":50674,"internal_node_id":"0.0-7.0-1.5"},{"startTime":50787.000000011176,"rt":1089.000000152737,"response":[{"id":0,"name":"Left","answer":100,"prompt":"Left","lastChangedTime":51415.999999968335},{"id":1,"name":"Right","answer":"50","prompt":"Right","lastChangedTime":null}],"trial_type":"canvas-sliders-response","trial_index":26,"time_elapsed":51766,"internal_node_id":"0.0-7.0-2.5"}],"confidenceCategory":1,"advisorAgrees":true},{"block":1,"advisorId":1,"choice":[],"answer":[0,0],"confidence":[33,61],"whichSide":0,"practice":true,"feedback":true,"warnings":["getConfidenceCategory: too few trials available to estimate confidence"],"stimulusDrawTime":[52778.000000165775],"stimulusOffTime":[901.0000000707805,null],"fixationDrawTime":[52278.000000165775],"id":10,"dotDifference":18,"grid":{"dotCountL":218,"dotCountR":182,"gridWidth":20,"gridHeight":20,"dotWidth":2,"dotHeight":2,"paddingX":6,"paddingY":6,"gridL":[[1,1,0,0,0,0,0,1,0,0,1,0,1,1,1,1,1,1,1,0],[1,1,0,1,0,1,1,0,0,0,0,0,0,1,0,1,1,0,0,1],[1,1,1,0,1,0,1,0,0,1,1,0,0,1,1,0,1,1,1,0],[0,1,1,1,0,0,1,1,1,1,1,0,1,0,1,1,1,1,0,1],[1,0,0,0,0,1,1,0,1,1,0,0,0,1,1,1,0,1,0,1],[0,0,0,0,1,1,1,0,0,0,1,1,0,0,1,1,1,0,1,0],[0,0,0,1,1,1,1,0,0,0,0,0,1,1,1,1,1,1,1,0],[1,0,1,0,1,0,1,0,1,1,0,0,0,1,1,1,0,1,1,0],[1,0,0,0,0,0,1,1,0,0,1,1,0,0,1,1,0,0,0,0],[1,0,1,0,1,0,1,0,0,1,0,1,1,0,1,1,1,0,0,0],[1,1,1,1,1,1,1,0,1,0,0,1,1,1,1,1,1,1,0,0],[0,0,1,1,1,1,1,1,0,1,1,0,1,0,1,1,1,1,1,1],[1,0,1,1,0,0,0,1,1,1,1,0,1,1,1,0,1,0,0,1],[1,0,0,0,1,0,1,0,1,0,1,1,1,0,0,0,1,1,0,1],[1,0,1,1,0,1,0,0,0,1,1,1,0,1,1,1,1,1,0,0],[0,0,1,0,1,0,1,0,0,0,0,0,0,0,1,0,0,0,1,0],[1,0,1,0,1,1,0,0,1,1,0,0,0,1,0,0,0,1,1,1],[0,0,0,1,0,1,0,0,1,1,0,1,0,1,0,1,1,1,1,1],[0,0,1,0,1,1,1,0,1,0,1,1,1,1,0,0,1,0,1,1],[0,1,1,1,1,1,1,1,1,0,0,1,0,1,1,0,0,0,0,1]],"gridR":[[0,0,0,0,0,0,1,0,1,0,1,0,0,1,0,0,0,1,1,0],[0,1,1,0,1,0,0,0,0,1,1,0,0,0,1,0,1,0,0,1],[0,1,1,0,1,1,0,1,1,0,0,1,1,1,0,0,0,0,1,1],[1,0,0,0,1,0,1,0,1,0,1,0,1,0,1,0,1,0,1,1],[1,0,0,0,1,0,0,1,1,1,1,0,1,1,1,1,1,1,1,1],[1,0,0,0,0,0,0,1,0,1,0,0,1,0,1,0,1,1,0,1],[0,1,0,0,0,0,1,1,1,1,0,1,0,1,0,1,0,0,0,1],[1,1,1,0,1,0,0,1,0,1,1,1,0,0,0,0,1,1,0,1],[0,1,1,1,0,1,0,0,0,0,0,1,1,1,1,1,0,0,0,0],[0,0,0,1,0,1,0,1,1,0,1,1,0,1,0,0,0,0,1,0],[0,1,1,1,0,0,0,1,1,0,1,0,1,0,0,1,1,1,0,1],[1,0,0,1,1,1,1,1,0,0,1,0,1,0,1,1,1,0,0,0],[0,0,0,1,1,0,0,0,0,0,1,0,0,1,0,0,1,0,1,0],[1,0,0,0,0,0,1,1,0,0,1,0,0,0,0,0,1,0,1,1],[1,1,0,0,1,0,0,1,0,0,1,1,1,0,1,1,1,1,0,0],[1,0,0,0,0,0,1,1,0,1,0,1,0,0,0,1,0,1,1,1],[0,0,0,0,1,1,1,0,1,0,0,0,0,0,0,1,0,1,0,1],[0,0,1,0,0,1,1,1,1,1,0,1,0,0,1,0,0,1,0,0],[1,0,0,1,1,0,0,0,0,1,0,1,0,1,1,1,0,0,0,1],[0,0,0,1,1,0,0,1,0,1,0,1,1,0,1,0,0,0,0,1]],"displayWidth":172,"displayHeight":172,"spacing":100,"style":{"gridBorderColor":"#ffffff","gridBorderWidth":"3","dotColor":"#ffffff","dotLineWidth":"1"}},"pluginResponse":[{"startTime":52077.99999997951,"rt":2001.0000001639128,"response":[{"id":0,"name":"Left","answer":33,"prompt":"Left","lastChangedTime":53674.000000115484},{"id":1,"name":"Right","answer":"50","prompt":"Right","lastChangedTime":null}],"stimulusOffTime":901.0000000707805,"trial_type":"canvas-sliders-response","trial_index":27,"time_elapsed":53969,"internal_node_id":"0.0-7.0-0.6"},{"choiceTime":0,"choice":1,"totalTime":2002.000000094995,"image":"http://localhost:8080/ExploringSocialMetacognition/assets/image/advisor3.png","adviceTime":2002.000000094995,"trial_type":"jspsych-jas-present-advice-choice","trial_index":28,"time_elapsed":55971,"internal_node_id":"0.0-7.0-1.6"},{"startTime":56083.00000010058,"rt":1375,"response":[{"id":0,"name":"Left","answer":61,"prompt":"Left","lastChangedTime":56699.999999953434},{"id":1,"name":"Right","answer":"50","prompt":"Right","lastChangedTime":null}],"trial_type":"canvas-sliders-response","trial_index":29,"time_elapsed":57348,"internal_node_id":"0.0-7.0-2.6"}],"confidenceCategory":1,"advisorAgrees":true},{"block":1,"advisorId":1,"choice":[],"answer":[0,0],"confidence":[25,49],"whichSide":0,"practice":true,"feedback":true,"warnings":["getConfidenceCategory: too few trials available to estimate confidence"],"stimulusDrawTime":[58360.000000102445],"stimulusOffTime":[899.9999999068677,null],"fixationDrawTime":[57860.000000102445],"id":11,"dotDifference":15,"grid":{"dotCountL":215,"dotCountR":185,"gridWidth":20,"gridHeight":20,"dotWidth":2,"dotHeight":2,"paddingX":6,"paddingY":6,"gridL":[[0,1,0,0,1,1,0,1,0,0,1,1,1,0,0,0,0,0,1,1],[1,0,0,1,0,0,1,0,1,1,0,1,0,0,1,1,1,0,1,0],[0,0,1,1,0,1,0,0,0,0,1,1,1,1,1,1,0,1,0,1],[0,1,1,1,0,1,0,1,0,1,1,1,1,1,1,1,1,0,0,1],[0,0,1,1,1,1,0,0,1,1,1,0,1,1,0,0,0,0,0,0],[0,1,0,1,0,1,0,0,0,1,1,0,1,1,1,1,1,1,0,0],[1,0,1,0,1,1,1,1,0,1,0,0,0,1,0,0,0,1,1,1],[1,1,1,1,0,0,0,0,0,0,1,0,0,1,1,0,1,0,0,0],[0,1,0,0,1,1,0,0,0,0,1,1,0,0,1,1,1,1,0,0],[0,0,1,0,1,1,1,0,1,0,1,1,1,1,1,1,0,0,0,1],[1,0,0,0,0,0,0,1,0,0,0,0,1,1,0,1,1,1,1,1],[1,1,1,1,0,0,0,1,1,0,0,1,0,0,1,1,0,1,0,1],[1,1,0,0,1,0,0,1,1,1,1,0,0,1,0,0,0,1,1,0],[1,0,0,0,1,1,1,1,0,1,0,1,0,1,1,0,1,1,1,0],[1,1,1,0,0,0,1,1,0,1,0,1,0,1,1,0,1,1,0,0],[1,0,1,1,1,0,1,0,1,0,1,1,0,1,0,1,1,0,1,1],[0,0,1,1,1,0,1,1,0,1,0,1,0,0,0,1,1,1,0,1],[0,1,1,0,0,1,1,0,0,1,1,1,0,1,1,0,1,0,0,1],[0,0,0,1,0,0,0,0,1,0,1,1,1,1,0,0,1,1,0,1],[1,1,0,1,1,1,1,1,1,1,1,0,0,0,0,1,1,1,0,1]],"gridR":[[0,0,0,1,0,1,1,0,0,0,0,1,1,1,0,0,1,0,0,1],[0,1,0,1,0,1,1,0,0,0,0,0,0,0,1,0,0,0,1,0],[1,0,1,0,1,1,1,1,0,1,1,1,0,0,1,1,1,0,0,1],[1,0,1,0,0,0,0,1,1,0,0,1,0,1,1,0,1,1,0,1],[0,0,0,0,0,1,0,1,0,1,0,0,0,0,0,0,0,1,0,0],[1,0,0,1,1,1,1,0,0,1,0,0,1,1,1,1,0,1,0,0],[1,0,1,1,1,0,1,1,0,1,0,1,1,1,0,0,0,0,0,1],[1,1,1,0,1,1,0,0,0,0,0,0,1,1,1,0,1,0,1,1],[0,0,0,1,1,0,1,1,1,1,0,1,1,1,0,1,0,1,1,1],[0,1,0,0,1,0,0,0,0,0,1,1,0,1,1,0,0,1,0,1],[0,1,0,0,0,0,1,0,1,1,1,1,0,0,0,0,0,1,0,1],[1,1,0,0,1,1,0,0,0,0,0,1,0,0,1,1,0,0,1,1],[0,0,0,0,0,1,0,1,0,0,0,1,0,1,0,0,1,1,1,1],[0,0,1,0,0,1,1,0,1,0,1,1,0,1,1,1,0,1,0,1],[1,0,1,0,0,1,0,0,0,1,1,1,1,0,1,1,1,0,0,0],[1,0,1,0,0,1,0,1,1,0,0,0,0,0,1,1,1,0,0,0],[0,1,0,1,0,0,0,0,0,0,1,1,0,1,0,1,1,0,1,1],[0,0,1,1,0,1,0,1,0,0,0,1,0,0,0,0,0,1,0,1],[0,1,0,0,0,1,0,1,1,1,1,0,0,1,1,1,0,1,1,0],[1,1,0,0,1,0,1,0,0,0,0,1,0,0,1,1,1,1,0,0]],"displayWidth":172,"displayHeight":172,"spacing":100,"style":{"gridBorderColor":"#ffffff","gridBorderWidth":"3","dotColor":"#ffffff","dotLineWidth":"1"}},"pluginResponse":[{"startTime":57660.00000014901,"rt":2467.9999998770654,"response":[{"id":0,"name":"Left","answer":25,"prompt":"Left","lastChangedTime":59694.00000013411},{"id":1,"name":"Right","answer":"50","prompt":"Right","lastChangedTime":null}],"stimulusOffTime":899.9999999068677,"trial_type":"canvas-sliders-response","trial_index":30,"time_elapsed":60016,"internal_node_id":"0.0-7.0-0.7"},{"choiceTime":0,"choice":1,"totalTime":2002.000000094995,"image":"http://localhost:8080/ExploringSocialMetacognition/assets/image/advisor3.png","adviceTime":2002.000000094995,"trial_type":"jspsych-jas-present-advice-choice","trial_index":31,"time_elapsed":62020,"internal_node_id":"0.0-7.0-1.7"},{"startTime":62131.999999983236,"rt":1040.000000037253,"response":[{"id":0,"name":"Left","answer":49,"prompt":"Left","lastChangedTime":62725.00000009313},{"id":1,"name":"Right","answer":"50","prompt":"Right","lastChangedTime":null}],"trial_type":"canvas-sliders-response","trial_index":32,"time_elapsed":63061,"internal_node_id":"0.0-7.0-2.7"}],"confidenceCategory":1,"advisorAgrees":true},{"block":1,"advisorId":1,"choice":[],"answer":[1,1],"confidence":[11,49],"whichSide":1,"practice":true,"feedback":true,"warnings":["getConfidenceCategory: too few trials available to estimate confidence"],"stimulusDrawTime":[64074.00000002235],"stimulusOffTime":[899.9999999068677,null],"fixationDrawTime":[63574.00000002235],"id":12,"dotDifference":12,"grid":{"dotCountL":188,"dotCountR":212,"gridWidth":20,"gridHeight":20,"dotWidth":2,"dotHeight":2,"paddingX":6,"paddingY":6,"gridL":[[1,1,0,0,0,0,1,1,0,0,1,1,1,0,1,1,1,0,1,0],[0,1,1,1,0,1,0,0,1,0,0,0,0,0,0,0,0,0,1,0],[0,1,0,1,1,1,1,1,0,1,0,1,1,0,1,0,0,1,1,1],[1,1,0,1,1,0,1,0,0,0,0,0,0,0,1,0,0,1,1,1],[1,1,0,0,0,1,1,1,0,0,0,1,0,0,0,0,0,1,0,0],[0,0,0,1,1,0,1,0,1,1,1,0,1,0,0,0,1,0,1,1],[0,0,1,1,1,0,1,0,0,0,0,1,1,0,0,1,1,1,1,0],[0,0,1,1,0,0,0,1,1,0,1,0,0,1,1,0,1,0,0,1],[1,0,1,0,0,0,1,1,1,1,0,0,0,1,0,1,1,0,0,0],[1,0,0,0,1,1,1,0,0,0,0,1,1,1,0,1,0,0,0,0],[1,0,0,0,1,1,0,0,1,0,1,1,1,1,0,1,1,0,0,0],[1,1,0,1,0,1,0,1,1,1,0,0,0,0,0,1,1,0,0,1],[0,1,0,0,1,0,1,0,1,0,0,1,1,0,0,0,1,0,0,0],[0,0,0,0,0,0,0,0,0,0,0,1,1,1,0,1,1,0,1,1],[0,1,1,0,1,1,0,0,0,1,0,0,0,1,1,1,1,1,1,1],[0,1,1,0,1,0,0,0,0,0,0,1,0,1,0,1,0,0,1,1],[0,1,1,1,1,1,1,1,0,0,0,1,0,0,0,1,1,0,1,1],[0,0,1,0,0,0,0,1,0,1,1,1,1,1,0,0,0,0,0,1],[0,0,0,0,0,0,0,1,1,1,1,1,0,1,1,0,1,1,1,0],[1,1,1,0,0,1,1,1,1,0,1,1,1,0,0,0,0,0,1,1]],"gridR":[[0,1,0,0,0,0,0,1,1,1,1,0,1,0,0,0,1,1,1,0],[0,0,0,0,1,1,0,1,0,1,1,1,0,0,1,0,0,0,1,0],[0,0,1,0,0,1,1,1,0,0,0,0,1,1,0,0,0,1,0,0],[0,0,1,1,1,0,0,1,1,1,0,1,0,0,1,1,0,0,0,1],[1,0,1,0,0,0,1,1,0,0,0,1,0,1,0,0,0,1,1,1],[0,1,1,0,0,1,1,1,0,1,1,1,0,0,1,1,0,1,0,1],[1,1,0,1,1,1,0,0,0,0,0,1,1,1,1,0,1,0,1,1],[1,1,1,1,0,0,1,1,1,0,0,1,1,1,1,1,0,1,1,0],[1,1,1,1,1,0,0,1,0,0,1,1,0,1,0,0,0,0,1,1],[1,0,1,0,1,0,0,1,1,0,1,0,1,1,0,1,0,1,0,0],[1,0,1,1,1,0,1,0,1,0,0,1,1,1,1,1,0,0,1,0],[0,0,0,0,0,1,0,0,0,1,0,1,1,1,1,1,1,1,1,0],[0,0,0,0,1,0,1,0,1,1,0,0,0,0,0,0,1,0,0,1],[1,1,1,1,0,0,0,1,1,1,1,1,0,1,1,1,1,1,1,1],[1,0,1,1,1,1,1,1,1,1,1,1,0,0,0,0,1,0,1,1],[1,1,1,0,1,1,1,0,1,1,0,0,1,0,0,0,1,1,0,0],[1,0,0,1,0,1,0,0,0,0,0,0,1,1,1,1,1,0,1,1],[1,0,1,1,1,0,1,0,1,0,1,0,1,0,1,1,1,1,0,0],[1,0,0,1,0,1,0,1,0,0,0,1,0,1,0,1,0,1,0,1],[1,0,1,1,0,0,1,1,0,0,1,0,1,1,1,0,0,0,0,1]],"displayWidth":172,"displayHeight":172,"spacing":100,"style":{"gridBorderColor":"#ffffff","gridBorderWidth":"3","dotColor":"#ffffff","dotLineWidth":"1"}},"pluginResponse":[{"startTime":63374.00000006892,"rt":2036.0000000800937,"response":[{"id":0,"name":"Left","answer":50,"prompt":"Left","lastChangedTime":null},{"id":1,"name":"Right","answer":"11","prompt":"Right","lastChangedTime":64979.00000005029}],"stimulusOffTime":899.9999999068677,"trial_type":"canvas-sliders-response","trial_index":33,"time_elapsed":65299,"internal_node_id":"0.0-7.0-0.8"},{"choiceTime":0,"choice":1,"totalTime":2002.000000094995,"image":"http://localhost:8080/ExploringSocialMetacognition/assets/image/advisor3.png","adviceTime":2002.000000094995,"trial_type":"jspsych-jas-present-advice-choice","trial_index":34,"time_elapsed":67302,"internal_node_id":"0.0-7.0-1.8"},{"startTime":67414.00000010617,"rt":1003.9999999571592,"response":[{"id":0,"name":"Left","answer":50,"prompt":"Left","lastChangedTime":null},{"id":1,"name":"Right","answer":"49","prompt":"Right","lastChangedTime":67908.9999999851}],"trial_type":"canvas-sliders-response","trial_index":35,"time_elapsed":68307,"internal_node_id":"0.0-7.0-2.8"}],"confidenceCategory":1,"advisorAgrees":true},{"block":1,"advisorId":1,"choice":[],"answer":[1,1],"confidence":[37,0],"whichSide":1,"practice":true,"feedback":true,"warnings":["getConfidenceCategory: too few trials available to estimate confidence"],"stimulusDrawTime":[69320.00000006519],"stimulusOffTime":[899.9999999068677,null],"fixationDrawTime":[68820.00000006519],"id":13,"dotDifference":9,"grid":{"dotCountL":191,"dotCountR":209,"gridWidth":20,"gridHeight":20,"dotWidth":2,"dotHeight":2,"paddingX":6,"paddingY":6,"gridL":[[1,0,0,0,0,0,0,0,1,0,0,0,0,1,1,0,0,0,0,0],[1,0,0,1,1,0,0,0,1,1,1,0,0,1,1,1,0,1,1,0],[1,1,0,0,0,0,1,1,1,0,1,1,0,0,1,0,1,0,0,0],[1,1,0,1,0,0,0,0,0,0,0,0,0,0,1,1,0,0,0,1],[0,0,0,0,1,1,0,0,1,0,0,0,0,1,0,1,0,0,1,0],[1,1,1,0,1,0,1,1,1,1,0,1,0,1,1,1,0,0,1,0],[0,1,1,0,1,1,0,1,0,0,1,0,0,1,1,1,1,0,1,0],[1,0,1,0,0,0,1,1,0,0,1,1,0,0,0,0,0,0,0,0],[1,1,1,1,0,1,0,0,1,1,0,1,1,1,0,1,1,0,1,1],[1,0,0,1,0,0,0,0,1,1,0,0,1,1,0,1,0,0,1,0],[1,1,1,1,1,1,0,1,0,1,0,1,1,1,0,0,1,0,0,0],[0,1,1,1,0,0,1,1,1,0,1,0,1,0,1,0,0,1,1,0],[1,1,0,0,1,1,1,0,0,1,1,0,1,0,1,1,0,0,1,0],[1,1,0,1,1,1,0,0,1,0,0,1,0,1,0,0,0,1,0,0],[0,0,1,0,0,0,0,0,0,0,1,1,0,0,0,0,1,0,1,1],[0,0,0,1,0,1,1,1,1,0,1,1,1,0,0,1,1,0,0,1],[1,1,1,1,1,1,1,0,0,1,0,0,1,1,1,1,1,1,1,1],[1,1,1,1,0,0,0,1,0,0,0,1,0,1,0,0,0,0,1,0],[0,0,1,0,1,1,0,0,1,1,1,1,0,1,0,0,0,1,0,1],[0,1,0,1,0,1,0,0,0,1,1,1,1,1,0,0,0,0,1,0]],"gridR":[[0,1,0,1,1,0,0,1,0,0,0,0,1,1,0,0,0,0,0,1],[0,0,0,1,0,0,1,1,0,0,0,1,1,1,0,1,1,1,1,1],[0,0,0,0,0,1,1,0,0,1,1,1,0,1,1,0,0,0,1,1],[1,1,1,0,0,0,1,1,0,0,1,1,0,1,0,1,0,1,1,1],[1,0,0,0,1,1,0,0,1,1,0,0,0,0,1,0,0,0,1,0],[1,0,1,1,0,1,0,1,0,1,0,1,0,1,1,0,1,1,0,0],[1,1,0,1,1,1,1,0,0,0,0,0,1,0,0,1,1,1,0,0],[1,0,0,1,1,0,0,0,1,0,1,0,1,1,1,0,0,1,1,1],[1,1,1,1,1,1,0,1,1,0,0,1,1,0,0,1,1,0,1,1],[1,0,1,0,0,1,1,1,0,1,1,0,0,0,1,0,0,1,0,0],[1,1,0,0,1,0,0,1,1,1,1,1,0,0,1,0,0,1,0,1],[1,0,0,0,0,0,0,1,1,1,0,1,0,0,1,0,0,0,1,0],[1,0,1,0,0,0,0,0,1,0,1,1,0,1,1,1,1,1,0,1],[1,1,1,1,1,0,1,1,1,1,1,1,0,0,1,1,0,0,1,0],[1,1,0,0,0,1,0,0,1,1,1,1,1,1,0,1,0,0,1,1],[1,1,0,0,1,1,1,0,0,0,1,0,0,1,0,0,1,1,1,0],[1,1,1,1,1,1,0,1,0,1,1,1,1,1,1,0,1,1,0,0],[0,1,1,0,0,1,0,0,1,1,1,0,1,0,1,0,1,1,0,1],[0,0,1,1,1,1,0,1,0,0,0,0,0,1,0,1,0,1,1,1],[0,1,0,0,1,1,1,0,1,0,1,0,0,0,0,1,0,0,0,0]],"displayWidth":172,"displayHeight":172,"spacing":100,"style":{"gridBorderColor":"#ffffff","gridBorderWidth":"3","dotColor":"#ffffff","dotLineWidth":"1"}},"pluginResponse":[{"startTime":68620.00000011176,"rt":2075.999999884516,"response":[{"id":0,"name":"Left","answer":50,"prompt":"Left","lastChangedTime":null},{"id":1,"name":"Right","answer":"37","prompt":"Right","lastChangedTime":70245.00000011176}],"stimulusOffTime":899.9999999068677,"trial_type":"canvas-sliders-response","trial_index":36,"time_elapsed":70585,"internal_node_id":"0.0-7.0-0.9"},{"choiceTime":0,"choice":1,"totalTime":2001.9999998621643,"image":"http://localhost:8080/ExploringSocialMetacognition/assets/image/advisor3.png","adviceTime":2001.9999998621643,"trial_type":"jspsych-jas-present-advice-choice","trial_index":37,"time_elapsed":72588,"internal_node_id":"0.0-7.0-1.9"},{"startTime":72699.99999995343,"rt":1067.0000000391155,"response":[{"id":0,"name":"Left","answer":50,"prompt":"Left","lastChangedTime":null},{"id":1,"name":"Right","answer":"0","prompt":"Right","lastChangedTime":73333.00000010058}],"trial_type":"canvas-sliders-response","trial_index":38,"time_elapsed":73656,"internal_node_id":"0.0-7.0-2.9"}],"confidenceCategory":1,"advisorAgrees":false},{"block":1,"advisorId":1,"choice":[],"answer":[0,0],"confidence":[62,28],"whichSide":0,"practice":true,"feedback":true,"warnings":["getConfidenceCategory: too few trials available to estimate confidence"],"stimulusDrawTime":[74668.99999999441],"stimulusOffTime":[899.9999999068677,null],"fixationDrawTime":[74168.00000006333],"id":14,"dotDifference":6,"grid":{"dotCountL":206,"dotCountR":194,"gridWidth":20,"gridHeight":20,"dotWidth":2,"dotHeight":2,"paddingX":6,"paddingY":6,"gridL":[[1,1,0,1,1,1,1,1,1,1,1,1,0,0,1,1,1,1,0,1],[0,0,1,0,0,0,0,1,0,1,1,0,0,1,0,0,1,0,0,1],[1,1,1,1,0,1,0,0,0,1,0,1,1,0,0,0,1,0,0,0],[0,0,1,0,0,0,1,1,0,0,0,0,0,1,1,0,0,1,1,0],[1,0,0,0,1,0,1,0,0,1,0,1,0,0,0,0,0,1,1,0],[0,0,0,0,1,0,0,0,0,0,0,1,0,1,1,0,1,1,0,1],[1,0,0,0,1,0,1,0,1,1,0,0,1,0,0,1,1,0,0,1],[1,1,1,1,1,0,0,1,0,0,1,1,0,1,1,1,1,1,1,1],[0,0,0,0,1,1,0,1,1,1,1,1,0,0,1,1,1,1,1,0],[0,1,0,0,1,0,0,0,0,0,1,0,0,1,1,1,0,0,0,1],[1,0,1,0,1,1,1,1,0,1,0,1,1,0,0,0,1,0,1,0],[0,1,0,1,0,1,1,0,1,0,1,0,0,1,0,0,1,1,1,0],[0,1,1,0,1,0,1,1,1,0,1,1,0,1,1,1,0,1,0,0],[0,0,0,1,0,1,0,1,0,1,1,1,1,1,0,1,0,1,1,1],[1,0,1,1,1,1,1,1,1,0,0,0,0,1,1,1,1,0,0,0],[0,1,0,0,0,0,0,1,1,1,0,1,0,1,1,0,0,1,1,1],[0,1,1,1,1,1,0,0,1,1,0,1,0,1,0,0,1,1,1,0],[0,0,0,0,0,1,1,1,0,1,0,1,0,0,1,0,1,0,0,0],[1,1,0,1,1,1,1,0,0,1,1,1,1,0,0,0,1,1,0,0],[0,1,1,1,1,1,0,0,0,1,0,1,1,1,0,0,0,1,1,1]],"gridR":[[0,1,1,0,0,0,0,1,0,1,1,1,1,0,1,0,0,1,1,1],[1,1,1,0,0,0,0,0,1,1,0,1,0,1,1,0,0,1,1,0],[0,1,0,0,1,0,0,0,0,1,1,0,1,1,1,1,1,0,1,0],[0,1,1,1,0,1,0,0,0,1,0,1,1,0,1,0,1,1,0,0],[1,1,1,0,1,0,1,1,0,1,0,0,0,1,1,1,0,1,0,1],[0,1,1,0,0,1,1,0,0,1,0,1,0,0,0,1,0,0,0,1],[0,1,0,0,0,1,0,1,1,0,0,0,1,0,1,1,1,0,0,1],[1,0,0,1,1,1,1,1,1,1,0,0,1,1,0,0,0,1,1,0],[1,0,0,0,0,0,0,1,1,0,1,1,1,1,1,0,0,0,0,1],[1,0,1,1,1,0,1,1,0,0,1,0,1,1,0,0,0,0,1,0],[1,0,1,0,1,0,0,1,1,0,1,1,1,0,1,0,0,0,1,1],[0,0,0,1,0,1,1,1,0,0,0,0,0,1,1,0,1,1,1,0],[0,0,0,0,0,0,1,1,0,0,0,1,1,1,1,1,1,1,1,0],[0,0,0,1,0,1,0,0,0,1,1,1,1,1,0,1,1,0,0,1],[1,0,0,1,1,0,0,1,0,0,1,1,0,0,0,0,0,0,1,0],[0,1,0,1,1,0,1,0,0,0,0,0,0,0,1,1,1,1,1,1],[0,1,1,0,1,0,1,0,1,0,1,1,1,1,1,0,0,0,0,1],[0,0,1,0,0,0,0,0,0,0,1,0,0,0,0,1,1,0,1,1],[0,1,0,0,1,0,1,0,1,0,0,1,0,0,1,0,1,0,1,0],[1,0,1,0,0,1,1,1,1,1,1,1,0,1,1,0,0,0,0,0]],"displayWidth":172,"displayHeight":172,"spacing":100,"style":{"gridBorderColor":"#ffffff","gridBorderWidth":"3","dotColor":"#ffffff","dotLineWidth":"1"}},"pluginResponse":[{"startTime":73968.0000001099,"rt":2136.9999998714775,"response":[{"id":0,"name":"Left","answer":62,"prompt":"Left","lastChangedTime":75662.00000001118},{"id":1,"name":"Right","answer":"50","prompt":"Right","lastChangedTime":null}],"stimulusOffTime":899.9999999068677,"trial_type":"canvas-sliders-response","trial_index":39,"time_elapsed":75994,"internal_node_id":"0.0-7.0-0.10"},{"choiceTime":0,"choice":1,"totalTime":2001.9999998621643,"image":"http://localhost:8080/ExploringSocialMetacognition/assets/image/advisor3.png","adviceTime":2001.9999998621643,"trial_type":"jspsych-jas-present-advice-choice","trial_index":40,"time_elapsed":77996,"internal_node_id":"0.0-7.0-1.10"},{"startTime":78109.00000017136,"rt":936.9999999180436,"response":[{"id":0,"name":"Left","answer":28,"prompt":"Left","lastChangedTime":78655.99999995902},{"id":1,"name":"Right","answer":"50","prompt":"Right","lastChangedTime":null}],"trial_type":"canvas-sliders-response","trial_index":41,"time_elapsed":78935,"internal_node_id":"0.0-7.0-2.10"}],"confidenceCategory":1,"advisorAgrees":false},{"block":1,"advisorId":1,"choice":[],"answer":[1,1],"confidence":[27,55],"whichSide":0,"practice":true,"feedback":true,"warnings":["getConfidenceCategory: too few trials available to estimate confidence"],"stimulusDrawTime":[79948.00000009127],"stimulusOffTime":[900.9999998379499,null],"fixationDrawTime":[79448.00000009127],"id":15,"dotDifference":3,"grid":{"dotCountL":203,"dotCountR":197,"gridWidth":20,"gridHeight":20,"dotWidth":2,"dotHeight":2,"paddingX":6,"paddingY":6,"gridL":[[1,1,0,1,0,1,0,1,0,1,0,0,0,1,0,1,0,1,1,1],[1,0,1,1,1,1,0,0,0,0,0,1,1,0,0,1,1,1,0,0],[0,1,1,0,0,0,1,0,1,1,0,0,0,1,1,0,0,0,0,0],[1,1,0,0,0,1,1,1,0,1,1,1,1,1,0,0,0,0,1,0],[1,0,1,0,1,1,1,1,1,0,0,0,1,1,0,1,0,1,0,0],[1,0,0,0,1,0,1,0,1,1,1,0,1,1,0,0,0,1,0,0],[1,1,1,1,1,1,1,1,1,0,1,1,1,1,1,0,1,0,1,0],[1,0,1,1,1,1,1,0,1,0,1,1,0,1,0,0,0,1,1,0],[0,0,0,1,0,0,1,0,1,1,0,1,0,0,0,0,1,1,0,1],[1,1,1,1,0,1,1,0,0,0,1,1,0,1,1,0,0,0,1,1],[1,1,0,1,1,1,1,0,1,0,0,0,0,1,0,0,1,0,1,1],[0,1,1,0,0,1,0,1,1,1,1,1,0,0,0,1,0,0,1,1],[1,0,0,0,1,0,0,0,0,0,0,0,0,0,0,0,0,0,1,0],[1,0,1,1,1,1,1,1,0,1,1,1,0,0,0,0,0,1,1,0],[0,1,1,0,1,1,0,0,0,0,1,1,1,1,0,0,0,1,0,0],[0,1,0,0,0,0,1,0,0,0,0,1,1,0,1,0,0,1,1,1],[1,0,0,0,1,1,0,0,0,1,1,1,0,1,1,1,1,0,1,0],[0,1,0,0,0,1,0,0,1,0,1,1,1,1,1,0,0,1,1,0],[1,0,0,1,1,0,0,0,0,1,1,0,1,0,0,1,1,1,0,1],[0,1,1,1,1,1,1,1,0,0,0,1,1,0,0,1,0,0,0,1]],"gridR":[[0,0,0,1,0,0,1,1,1,1,1,0,1,0,0,0,1,1,1,1],[0,1,0,1,0,1,1,1,0,1,0,0,1,0,0,1,0,0,0,0],[0,1,1,0,1,1,1,1,1,1,1,1,0,1,0,0,0,0,1,1],[0,1,0,1,1,0,0,0,1,1,0,1,0,1,1,1,0,0,0,0],[0,0,1,0,0,1,1,0,0,0,0,0,0,1,0,0,0,0,1,0],[0,0,1,1,1,1,1,1,0,0,0,0,0,1,1,0,1,0,0,0],[1,0,0,0,0,1,1,0,1,1,0,1,0,0,0,1,1,0,1,1],[0,1,1,1,1,0,0,1,0,1,1,0,1,1,0,1,0,1,1,1],[0,0,0,1,0,0,0,1,0,1,0,1,1,0,1,0,0,1,1,1],[1,0,1,1,0,1,0,1,0,0,0,1,1,1,1,1,1,0,1,0],[0,0,0,1,1,0,0,0,1,1,0,1,1,0,1,0,0,1,1,0],[1,1,1,1,0,0,0,0,0,1,0,0,1,1,0,0,0,0,0,0],[1,1,0,1,0,0,1,1,0,1,1,0,0,1,0,0,1,0,0,0],[1,0,0,1,1,1,1,1,1,0,0,1,0,0,1,1,1,1,0,1],[0,1,1,0,0,1,1,1,0,1,0,0,0,0,0,1,0,0,0,1],[1,0,0,0,1,0,0,0,0,0,1,1,0,1,1,0,1,1,1,1],[0,1,1,1,0,1,0,1,0,1,1,1,1,0,0,1,1,1,1,0],[0,0,1,0,0,1,0,0,1,0,0,1,1,1,0,0,1,1,0,0],[1,1,0,0,1,0,1,0,1,0,1,0,1,1,0,0,0,1,0,0],[0,1,1,0,1,1,0,1,0,1,1,0,0,0,1,1,1,0,1,1]],"displayWidth":172,"displayHeight":172,"spacing":100,"style":{"gridBorderColor":"#ffffff","gridBorderWidth":"3","dotColor":"#ffffff","dotLineWidth":"1"}},"pluginResponse":[{"startTime":79248.00000013784,"rt":1970.9999999031425,"response":[{"id":0,"name":"Left","answer":50,"prompt":"Left","lastChangedTime":null},{"id":1,"name":"Right","answer":"27","prompt":"Right","lastChangedTime":80799.00000011548}],"stimulusOffTime":900.9999998379499,"trial_type":"canvas-sliders-response","trial_index":42,"time_elapsed":81109,"internal_node_id":"0.0-7.0-0.11"},{"choiceTime":0,"choice":1,"totalTime":2001.9999998621643,"image":"http://localhost:8080/ExploringSocialMetacognition/assets/image/advisor3.png","adviceTime":2001.9999998621643,"trial_type":"jspsych-jas-present-advice-choice","trial_index":43,"time_elapsed":83112,"internal_node_id":"0.0-7.0-1.11"},{"startTime":83225.00000009313,"rt":1006.0000000521541,"response":[{"id":0,"name":"Left","answer":50,"prompt":"Left","lastChangedTime":null},{"id":1,"name":"Right","answer":"55","prompt":"Right","lastChangedTime":83788.00000017509}],"trial_type":"canvas-sliders-response","trial_index":44,"time_elapsed":84121,"internal_node_id":"0.0-7.0-2.11"}],"confidenceCategory":1,"advisorAgrees":false},{"type":2,"typeName":"choice","block":2,"advisorId":2,"choice":[2,3],"answer":[0,0],"confidence":[15,46],"whichSide":1,"practice":false,"feedback":false,"warnings":["getConfidenceCategory: too few trials available to estimate confidence"],"stimulusDrawTime":[99241.0000001546],"stimulusOffTime":[901.0000000707805,null],"fixationDrawTime":[98739.99999999069],"id":16,"dotDifference":6,"grid":{"dotCountL":194,"dotCountR":206,"gridWidth":20,"gridHeight":20,"dotWidth":2,"dotHeight":2,"paddingX":6,"paddingY":6,"gridL":[[1,0,1,0,1,0,1,1,1,1,1,0,1,0,1,1,1,1,1,0],[1,0,0,0,0,1,1,1,1,1,0,1,1,0,0,0,0,0,1,0],[1,1,0,0,1,1,1,0,0,1,0,0,0,1,0,1,1,0,1,1],[0,0,1,1,1,1,0,1,0,1,0,0,1,0,0,0,1,1,1,0],[1,0,1,0,0,1,0,1,1,0,0,0,0,0,0,1,1,1,1,1],[0,1,0,0,0,1,0,0,0,0,1,1,1,0,0,0,1,0,0,1],[1,1,0,0,0,0,0,0,1,0,0,1,0,1,1,1,0,1,0,1],[0,1,1,1,0,0,1,0,1,1,1,1,0,0,1,1,0,1,0,0],[0,0,1,0,1,1,1,1,1,1,0,0,0,0,1,0,1,0,0,0],[0,0,0,0,0,0,1,1,0,1,0,1,1,0,1,0,1,0,0,1],[0,0,1,0,0,1,1,1,0,1,0,1,1,1,1,1,0,1,1,0],[0,1,1,1,1,0,1,1,0,0,0,0,1,1,1,1,1,0,1,0],[0,1,0,0,1,1,0,0,0,0,1,1,1,1,0,0,0,1,0,1],[0,0,1,1,1,0,0,0,1,0,1,0,0,1,0,1,1,1,0,0],[0,1,1,1,1,0,1,1,0,1,1,1,1,0,1,1,1,0,0,0],[0,1,0,0,0,0,1,0,0,0,1,1,1,1,1,1,0,1,0,0],[1,1,0,1,0,1,0,0,0,0,0,0,0,1,1,1,0,1,1,1],[0,1,0,0,1,0,0,0,0,1,0,1,0,1,1,1,1,1,0,0],[0,0,0,0,0,0,0,0,1,1,0,0,1,0,0,1,0,1,1,1],[0,1,1,0,1,0,0,0,1,0,1,0,1,0,0,0,0,0,0,0]],"gridR":[[0,1,0,0,1,0,1,1,1,1,1,0,0,0,1,1,1,0,1,1],[1,1,1,1,1,0,0,1,1,0,0,1,0,0,1,0,1,0,1,1],[0,0,1,1,1,1,0,0,0,0,0,1,1,0,1,0,1,0,0,0],[1,1,1,0,0,0,0,0,0,1,0,0,1,0,1,0,1,0,1,0],[0,1,1,1,1,0,0,1,1,0,1,1,0,1,1,0,1,0,0,0],[1,1,1,1,0,0,1,1,1,1,1,1,1,0,0,1,1,0,1,1],[1,1,0,1,0,0,0,1,1,1,0,0,0,1,1,1,1,0,0,0],[1,1,1,1,1,1,0,0,0,1,0,1,1,1,0,1,0,1,1,0],[1,0,0,1,1,0,0,1,0,1,0,0,1,0,1,0,0,0,1,0],[0,0,0,1,1,0,0,1,0,0,1,1,0,0,0,0,0,1,0,1],[1,0,1,0,0,1,0,1,1,1,1,1,1,1,1,1,0,1,0,0],[1,0,0,0,0,0,1,1,0,0,0,0,0,1,0,0,1,1,0,1],[0,1,1,0,1,1,0,0,0,1,1,0,1,0,0,0,0,1,1,1],[0,1,0,0,1,0,0,0,1,1,1,0,1,1,1,1,1,0,0,1],[0,0,0,0,0,1,1,1,0,0,1,1,1,0,0,0,1,0,0,1],[1,1,1,1,1,0,1,1,1,0,1,1,1,0,1,1,0,0,1,1],[1,1,1,0,1,0,1,1,0,1,0,1,1,0,1,0,1,0,0,0],[0,1,1,1,1,0,0,1,0,1,1,0,0,1,0,0,1,1,1,0],[0,0,0,0,1,0,1,0,1,1,0,0,1,1,1,0,0,0,0,1],[1,0,1,0,0,0,0,0,0,1,1,0,0,0,0,1,1,1,0,1]],"displayWidth":172,"displayHeight":172,"spacing":100,"style":{"gridBorderColor":"#ffffff","gridBorderWidth":"3","dotColor":"#ffffff","dotLineWidth":"1"}},"pluginResponse":[{"startTime":98540.00000003725,"rt":2280.999999959022,"response":[{"id":0,"name":"Left","answer":15,"prompt":"Left","lastChangedTime":100413.00000017509},{"id":1,"name":"Right","answer":"50","prompt":"Right","lastChangedTime":null}],"stimulusOffTime":901.0000000707805,"trial_type":"canvas-sliders-response","trial_index":50,"time_elapsed":100710,"internal_node_id":"0.0-13.0-0.0"},{"choiceTime":994.0000001806766,"choice":2,"totalTime":2996.000000042841,"image":"http://localhost:8080/ExploringSocialMetacognition/assets/image/advisor1.png","adviceTime":2001.9999998621643,"trial_type":"jspsych-jas-present-advice-choice","trial_index":51,"time_elapsed":103706,"internal_node_id":"0.0-13.0-1.0"},{"startTime":103819.00000013411,"rt":1000,"response":[{"id":0,"name":"Left","answer":46,"prompt":"Left","lastChangedTime":104317.9999999702},{"id":1,"name":"Right","answer":"50","prompt":"Right","lastChangedTime":null}],"trial_type":"canvas-sliders-response","trial_index":52,"time_elapsed":104707,"internal_node_id":"0.0-13.0-2.0"}],"confidenceCategory":1,"advisorAgrees":false},{"type":1,"typeName":"force","block":2,"advisorId":3,"choice":[],"answer":[1,1],"confidence":[2,42],"whichSide":1,"practice":false,"feedback":false,"warnings":["getConfidenceCategory: too few trials available to estimate confidence"],"stimulusDrawTime":[105719.99999997206],"stimulusOffTime":[900.0000001396984,null],"fixationDrawTime":[105221.00000013597],"id":17,"dotDifference":9,"grid":{"dotCountL":191,"dotCountR":209,"gridWidth":20,"gridHeight":20,"dotWidth":2,"dotHeight":2,"paddingX":6,"paddingY":6,"gridL":[[1,0,0,0,1,1,0,0,1,1,1,1,1,0,0,0,0,1,0,0],[1,1,0,0,1,0,0,0,1,0,0,1,1,1,1,0,0,1,1,0],[1,1,0,0,0,0,0,0,1,0,0,1,1,0,0,1,1,0,0,0],[1,0,0,0,0,0,1,0,0,0,1,1,1,1,0,1,1,1,0,1],[1,0,1,0,0,0,1,0,1,1,0,1,0,1,1,0,1,1,0,0],[0,0,0,1,1,1,0,1,0,0,1,0,0,1,1,1,0,1,1,1],[0,1,1,0,0,1,1,1,1,1,0,0,1,1,0,1,0,0,1,1],[1,1,0,1,1,0,0,1,0,1,0,1,1,0,1,0,1,0,0,0],[0,1,1,1,0,1,0,1,0,1,1,0,0,1,1,0,1,1,1,1],[0,0,0,0,0,0,0,1,0,0,0,0,0,0,0,1,0,0,0,0],[1,1,0,1,1,1,1,1,0,1,0,1,1,0,0,0,0,1,1,1],[0,0,1,0,0,0,1,1,1,1,1,1,0,0,1,0,1,1,0,1],[0,0,1,1,0,1,1,0,1,0,0,1,0,1,1,1,1,1,1,0],[1,1,0,0,1,1,0,1,0,0,0,0,0,0,1,1,0,0,1,0],[1,1,1,1,1,0,0,0,0,0,1,0,0,0,1,0,0,0,0,1],[0,1,1,0,0,1,1,1,1,1,1,0,0,1,0,1,0,0,1,1],[0,0,0,1,1,0,0,1,1,1,0,1,1,0,1,1,1,0,0,0],[0,0,1,0,1,0,1,1,1,0,0,0,0,0,1,1,0,0,0,0],[0,0,1,1,1,0,0,1,1,1,0,0,0,1,0,1,0,1,0,1],[0,1,0,0,1,0,0,0,0,1,0,0,0,1,0,1,0,0,0,1]],"gridR":[[0,1,0,0,1,0,0,1,1,1,1,1,0,1,0,0,1,1,1,0],[0,1,1,1,0,1,1,0,1,1,1,1,1,1,1,0,0,1,0,0],[1,0,0,1,1,1,0,1,1,1,1,1,0,1,1,0,1,0,1,1],[1,0,0,0,0,0,1,1,0,1,1,0,0,0,0,1,1,1,1,0],[0,0,1,1,0,1,0,0,1,0,0,1,1,0,0,0,1,1,0,0],[0,0,0,1,1,1,1,1,0,0,1,1,1,0,1,0,1,1,1,0],[1,1,1,1,0,0,0,0,1,0,1,1,0,1,0,1,1,1,1,0],[0,0,1,0,0,0,1,1,0,0,1,0,1,0,1,0,0,0,1,1],[0,0,0,1,0,1,1,0,0,0,0,1,1,1,1,0,0,0,0,1],[0,1,1,0,1,1,0,0,1,1,1,1,0,1,0,1,0,0,1,1],[0,1,1,1,0,1,0,1,1,0,0,1,1,0,1,1,1,1,0,0],[0,0,0,0,1,0,0,1,1,1,1,0,1,0,1,1,0,0,0,1],[0,1,0,1,1,1,0,0,0,0,0,0,0,1,0,1,0,0,1,1],[0,0,1,0,1,1,0,1,1,0,0,0,1,1,1,1,0,1,1,1],[0,0,1,1,1,0,0,0,1,0,0,0,1,0,1,1,0,0,1,1],[0,0,1,1,1,0,0,1,1,1,1,0,0,0,1,1,0,0,0,1],[1,1,1,1,0,1,1,1,0,1,1,1,0,0,1,0,1,1,0,0],[0,0,1,1,1,1,0,0,0,0,0,0,0,0,0,0,0,1,1,0],[1,1,1,0,1,0,0,1,1,1,0,0,0,1,0,0,1,1,0,1],[0,0,1,1,0,0,0,1,1,0,1,1,1,0,1,1,1,1,0,1]],"displayWidth":172,"displayHeight":172,"spacing":100,"style":{"gridBorderColor":"#ffffff","gridBorderWidth":"3","dotColor":"#ffffff","dotLineWidth":"1"}},"pluginResponse":[{"startTime":105020.00000001863,"rt":2086.00000012666,"response":[{"id":0,"name":"Left","answer":50,"prompt":"Left","lastChangedTime":null},{"id":1,"name":"Right","answer":"2","prompt":"Right","lastChangedTime":106742.00000008568}],"stimulusOffTime":900.0000001396984,"trial_type":"canvas-sliders-response","trial_index":53,"time_elapsed":106994,"internal_node_id":"0.0-13.0-0.1"},{"choiceTime":0,"choice":3,"totalTime":2002.000000094995,"image":"http://localhost:8080/ExploringSocialMetacognition/assets/image/advisor2.png","adviceTime":2002.000000094995,"trial_type":"jspsych-jas-present-advice-choice","trial_index":54,"time_elapsed":108998,"internal_node_id":"0.0-13.0-1.1"},{"startTime":109111.00000003353,"rt":1091.9999999459833,"response":[{"id":0,"name":"Left","answer":50,"prompt":"Left","lastChangedTime":null},{"id":1,"name":"Right","answer":"42","prompt":"Right","lastChangedTime":109739.99999999069}],"trial_type":"canvas-sliders-response","trial_index":55,"time_elapsed":110093,"internal_node_id":"0.0-13.0-2.1"}],"confidenceCategory":1,"advisorAgrees":true},{"type":2,"typeName":"choice","block":2,"advisorId":2,"choice":[3,2],"answer":[1,1],"confidence":[32,55],"whichSide":1,"practice":false,"feedback":false,"warnings":["getConfidenceCategory: too few trials available to estimate confidence"],"stimulusDrawTime":[111106.00000014529],"stimulusOffTime":[900.0000001396984,null],"fixationDrawTime":[110604.99999998137],"id":18,"dotDifference":9,"grid":{"dotCountL":191,"dotCountR":209,"gridWidth":20,"gridHeight":20,"dotWidth":2,"dotHeight":2,"paddingX":6,"paddingY":6,"gridL":[[1,1,0,1,0,0,0,0,0,1,1,1,0,0,0,0,1,0,0,0],[0,0,0,1,1,0,1,1,0,1,0,0,1,1,0,1,1,1,1,1],[1,0,0,0,1,1,0,0,1,1,0,1,0,0,0,1,1,0,1,0],[0,1,1,0,0,0,1,1,1,0,1,0,0,1,1,0,1,0,0,0],[1,1,1,0,1,1,1,0,1,0,1,1,0,0,0,0,1,0,1,0],[1,0,0,0,1,1,0,0,1,0,0,0,1,0,1,0,0,1,0,1],[1,0,0,0,0,1,0,1,0,1,1,0,0,0,0,1,1,0,1,0],[0,0,1,1,0,0,0,0,1,0,0,1,0,0,0,0,1,1,0,1],[0,1,1,0,1,0,1,1,1,1,0,1,0,0,1,0,0,0,0,0],[0,0,1,1,0,0,1,0,1,0,0,0,1,1,1,1,1,1,0,1],[0,0,1,0,1,0,1,1,1,1,0,0,0,0,0,1,1,0,0,0],[1,0,1,0,1,1,0,0,1,1,1,0,1,1,1,1,0,1,1,1],[0,1,0,0,0,1,0,1,0,0,0,1,1,1,0,0,0,0,0,1],[0,1,0,0,1,0,1,0,1,1,1,1,0,0,0,0,0,1,1,1],[1,1,1,0,0,0,0,1,1,1,0,0,1,1,0,0,0,1,1,0],[0,0,0,1,1,0,0,0,0,1,0,0,1,0,0,1,1,0,1,1],[0,0,1,1,0,0,0,0,1,1,0,1,1,0,1,1,1,1,1,1],[1,1,1,1,0,1,0,1,0,0,0,1,1,1,1,1,0,0,1,1],[0,1,1,0,1,1,1,0,0,1,1,0,0,0,1,0,0,1,0,1],[0,0,1,1,0,0,1,0,1,0,0,0,1,0,0,1,0,0,1,1]],"gridR":[[0,1,1,0,1,0,0,1,0,0,1,1,0,0,0,1,0,0,0,1],[0,1,0,1,1,1,0,1,1,0,0,1,1,0,1,0,0,1,0,0],[0,1,1,1,1,1,0,1,0,1,0,0,1,1,1,1,1,0,1,1],[1,1,0,0,1,0,1,0,0,1,1,0,0,0,1,0,1,1,1,1],[0,1,1,1,1,1,1,1,0,0,1,1,1,1,0,1,1,0,1,0],[1,0,1,0,0,1,0,1,1,1,0,1,0,1,1,0,1,1,0,1],[1,1,1,0,0,0,0,0,1,0,1,0,1,1,0,0,0,1,1,0],[0,0,0,0,0,0,1,1,0,1,1,0,1,1,0,0,1,0,0,1],[1,0,1,0,1,1,1,0,0,0,1,0,0,0,1,0,0,0,1,0],[0,1,0,1,1,1,1,0,1,1,0,1,1,1,1,0,0,0,1,1],[0,1,0,1,1,0,1,0,1,1,1,1,1,1,0,0,0,0,1,1],[0,1,1,1,0,1,0,0,1,1,0,1,0,1,0,0,1,1,1,0],[0,1,0,1,0,0,1,0,0,1,1,1,1,0,0,1,0,1,0,0],[1,0,1,0,0,0,0,1,1,1,0,1,0,1,0,1,0,1,0,0],[1,1,1,1,1,1,1,1,0,0,0,0,0,1,0,1,0,0,1,0],[0,1,0,0,1,1,0,1,1,1,1,0,0,0,0,0,0,0,1,0],[1,1,1,1,1,1,0,0,1,1,0,0,0,0,0,0,0,1,1,1],[0,1,0,0,0,0,0,1,1,0,1,0,0,0,1,1,1,0,1,1],[1,1,0,0,1,0,0,0,1,0,1,1,1,1,0,1,1,0,1,0],[0,0,1,1,1,0,1,0,0,1,1,0,0,1,1,1,0,0,1,1]],"displayWidth":172,"displayHeight":172,"spacing":100,"style":{"gridBorderColor":"#ffffff","gridBorderWidth":"3","dotColor":"#ffffff","dotLineWidth":"1"}},"pluginResponse":[{"startTime":110405.00000002794,"rt":1993.999999947846,"response":[{"id":0,"name":"Left","answer":50,"prompt":"Left","lastChangedTime":null},{"id":1,"name":"Right","answer":"32","prompt":"Right","lastChangedTime":111955.0000000745}],"stimulusOffTime":900.0000001396984,"trial_type":"canvas-sliders-response","trial_index":56,"time_elapsed":112287,"internal_node_id":"0.0-13.0-0.2"},{"choiceTime":1043.999999994412,"choice":2,"totalTime":3045.9999998565763,"image":"http://localhost:8080/ExploringSocialMetacognition/assets/image/advisor1.png","adviceTime":2001.9999998621643,"trial_type":"jspsych-jas-present-advice-choice","trial_index":57,"time_elapsed":115334,"internal_node_id":"0.0-13.0-1.2"},{"startTime":115447.00000016019,"rt":1083.9999997988343,"response":[{"id":0,"name":"Left","answer":50,"prompt":"Left","lastChangedTime":null},{"id":1,"name":"Right","answer":"55","prompt":"Right","lastChangedTime":116067.9999999702}],"trial_type":"canvas-sliders-response","trial_index":58,"time_elapsed":116420,"internal_node_id":"0.0-13.0-2.2"}],"confidenceCategory":1,"advisorAgrees":true},{"type":1,"typeName":"force","block":2,"advisorId":3,"choice":[],"answer":[0,0],"confidence":[45,74],"whichSide":0,"practice":false,"feedback":false,"warnings":["getConfidenceCategory: too few trials available to estimate confidence"],"stimulusDrawTime":[117432.99999996088],"stimulusOffTime":[900.0000001396984,null],"fixationDrawTime":[116932.99999996088],"id":19,"dotDifference":6,"grid":{"dotCountL":206,"dotCountR":194,"gridWidth":20,"gridHeight":20,"dotWidth":2,"dotHeight":2,"paddingX":6,"paddingY":6,"gridL":[[1,0,0,1,1,0,1,1,1,0,0,0,1,1,1,0,0,1,0,1],[0,0,0,0,0,0,0,0,0,0,1,0,0,0,1,0,0,1,0,0],[0,1,1,1,0,1,0,1,0,0,0,1,0,1,0,1,0,1,0,1],[0,1,1,1,0,1,1,1,0,1,0,0,1,0,0,0,1,1,1,1],[0,0,0,1,1,0,0,1,1,1,0,1,0,0,1,0,0,1,0,1],[1,1,1,1,1,1,1,1,1,0,0,1,1,1,1,0,0,1,0,1],[0,0,0,0,0,1,1,0,0,1,1,0,1,0,0,1,1,1,1,0],[1,1,1,1,0,0,1,1,0,0,1,1,0,0,0,0,0,0,0,0],[0,1,1,1,0,0,1,0,1,0,0,0,0,1,0,1,0,1,0,1],[1,1,1,1,1,1,1,1,0,1,0,0,0,0,1,0,1,1,0,0],[1,1,0,1,1,1,1,0,0,1,1,0,1,1,0,1,0,0,0,1],[0,1,1,0,0,1,1,1,1,1,1,1,1,0,1,0,0,1,0,1],[1,0,0,1,1,1,1,1,1,1,0,0,0,1,0,0,0,0,1,1],[0,1,1,0,0,1,0,1,1,0,1,0,1,0,1,1,0,0,0,0],[0,0,1,1,0,1,1,0,1,1,0,0,0,1,1,1,0,0,1,0],[1,1,0,1,0,1,1,1,1,0,0,1,1,1,0,0,0,1,0,1],[1,1,1,0,0,0,1,0,1,0,1,1,0,0,1,1,1,0,1,0],[0,0,1,1,0,0,0,1,0,0,1,0,0,0,0,1,0,1,0,0],[0,0,0,1,1,1,0,1,1,1,1,1,0,1,0,0,1,0,1,0],[1,1,1,1,1,0,0,1,1,1,0,0,1,1,0,1,1,1,0,0]],"gridR":[[1,0,0,0,1,0,0,1,1,0,0,0,1,1,0,0,0,1,1,0],[0,1,0,0,1,1,0,0,0,0,0,0,1,1,0,0,0,0,0,1],[1,1,0,0,0,1,0,0,1,1,0,0,1,1,0,0,1,1,0,0],[1,0,0,0,1,1,0,1,0,1,1,0,1,0,0,1,0,0,1,0],[0,0,1,1,0,1,0,0,1,0,0,1,1,1,0,0,0,0,0,1],[1,1,0,1,1,1,1,0,1,1,0,1,0,0,0,0,0,0,1,0],[1,1,1,1,0,0,0,1,1,0,1,0,1,0,1,1,0,1,0,1],[0,1,1,1,1,0,0,1,1,0,1,0,1,0,0,1,1,1,1,0],[0,0,0,1,0,1,0,1,0,0,1,1,1,0,0,0,1,1,0,0],[0,0,1,1,1,0,0,1,1,1,1,1,1,0,1,1,1,0,1,1],[1,0,0,0,0,0,0,0,0,0,1,1,0,1,1,0,0,1,0,0],[0,0,1,1,1,0,1,0,1,0,0,0,1,0,1,1,1,1,1,0],[0,0,0,0,0,1,1,1,0,0,0,0,0,1,0,1,1,0,1,1],[1,0,0,1,0,1,1,1,0,1,0,1,1,0,0,0,1,0,0,1],[1,0,1,0,1,1,1,1,0,1,1,0,0,1,1,1,1,1,0,1],[1,0,0,0,1,1,0,0,0,1,0,0,1,1,0,1,1,1,1,1],[1,0,0,0,0,1,1,1,1,0,0,0,0,1,0,0,0,0,1,0],[1,0,0,0,0,0,0,1,0,1,1,0,1,0,1,1,1,1,1,1],[0,1,1,1,0,1,0,0,0,1,1,0,1,0,0,1,1,0,0,1],[1,1,0,0,0,1,1,0,0,0,0,1,1,1,1,1,0,0,0,1]],"displayWidth":172,"displayHeight":172,"spacing":100,"style":{"gridBorderColor":"#ffffff","gridBorderWidth":"3","dotColor":"#ffffff","dotLineWidth":"1"}},"pluginResponse":[{"startTime":116733.00000000745,"rt":2158.999999985099,"response":[{"id":0,"name":"Left","answer":45,"prompt":"Left","lastChangedTime":118398.0000000447},{"id":1,"name":"Right","answer":"50","prompt":"Right","lastChangedTime":null}],"stimulusOffTime":900.0000001396984,"trial_type":"canvas-sliders-response","trial_index":59,"time_elapsed":118780,"internal_node_id":"0.0-13.0-0.3"},{"choiceTime":0,"choice":3,"totalTime":2001.9999998621643,"image":"http://localhost:8080/ExploringSocialMetacognition/assets/image/advisor2.png","adviceTime":2001.9999998621643,"trial_type":"jspsych-jas-present-advice-choice","trial_index":60,"time_elapsed":120783,"internal_node_id":"0.0-13.0-1.3"},{"startTime":120895.99999994971,"rt":1142.00000022538,"response":[{"id":0,"name":"Left","answer":74,"prompt":"Left","lastChangedTime":121535.00000014901},{"id":1,"name":"Right","answer":"50","prompt":"Right","lastChangedTime":null}],"trial_type":"canvas-sliders-response","trial_index":61,"time_elapsed":121926,"internal_node_id":"0.0-13.0-2.3"}],"confidenceCategory":1,"advisorAgrees":true},{"type":1,"typeName":"force","block":2,"advisorId":3,"choice":[],"answer":[0,1],"confidence":[6,11],"whichSide":1,"practice":false,"feedback":false,"warnings":["getConfidenceCategory: too few trials available to estimate confidence"],"stimulusDrawTime":[122939.00000001304],"stimulusOffTime":[899.9999999068677,null],"fixationDrawTime":[122439.00000001304],"id":20,"dotDifference":3,"grid":{"dotCountL":197,"dotCountR":203,"gridWidth":20,"gridHeight":20,"dotWidth":2,"dotHeight":2,"paddingX":6,"paddingY":6,"gridL":[[1,0,0,0,1,1,1,1,0,1,0,0,1,1,1,0,0,1,1,0],[1,0,0,0,0,1,1,0,0,0,0,0,1,1,0,0,1,1,0,0],[0,0,0,1,0,0,0,0,0,1,1,0,1,0,0,0,1,1,1,0],[1,0,1,0,0,1,0,0,0,0,0,1,0,1,0,1,0,1,1,1],[0,1,1,0,1,0,1,0,1,0,1,0,0,1,0,1,1,0,0,0],[0,0,1,1,0,1,1,1,1,1,0,1,0,1,0,0,1,1,1,0],[1,0,1,0,0,0,1,1,1,1,1,0,1,1,1,1,0,1,0,0],[0,1,0,1,0,1,1,0,1,1,0,1,1,1,0,0,1,1,1,1],[1,1,0,1,0,1,0,1,0,1,0,1,1,0,0,0,1,1,1,1],[1,0,1,1,0,1,0,1,1,0,1,0,1,0,1,0,1,0,0,1],[0,0,1,0,1,0,1,0,1,1,1,0,0,1,0,0,0,1,1,1],[1,0,0,1,0,1,0,1,0,0,0,0,1,1,0,0,1,0,1,0],[0,1,1,1,1,0,0,0,1,0,0,0,0,1,0,0,1,1,0,0],[0,1,1,0,1,1,1,0,0,0,0,1,0,0,0,0,0,0,0,0],[0,1,0,1,1,0,1,0,1,1,0,1,0,1,1,0,1,0,0,1],[1,0,0,1,1,0,1,1,0,0,1,1,0,0,1,0,1,1,0,0],[1,1,0,1,1,0,0,0,0,1,1,1,1,0,0,1,1,1,0,1],[0,1,1,1,1,1,0,1,0,1,1,0,1,1,1,0,0,1,1,0],[0,0,0,1,0,0,1,0,1,0,1,0,0,0,1,0,0,0,0,1],[1,1,0,0,0,1,0,0,0,0,0,1,1,0,1,1,1,1,0,1]],"gridR":[[0,0,1,0,0,1,0,1,0,1,0,0,0,0,1,1,1,0,1,0],[1,0,1,0,1,0,0,1,0,1,0,1,1,1,1,0,1,0,0,1],[0,1,0,1,1,0,1,0,0,1,0,1,1,0,1,1,1,1,0,1],[0,1,1,1,1,0,0,0,0,0,1,0,0,1,1,0,0,1,0,1],[1,1,0,0,0,1,1,0,1,1,0,0,1,0,1,0,0,1,0,1],[1,0,1,0,0,0,0,1,0,1,0,1,0,1,1,0,0,1,1,1],[1,1,1,0,1,1,0,1,1,0,1,1,0,1,1,0,0,0,0,0],[1,1,0,1,1,0,0,0,0,0,1,0,0,1,1,1,0,1,1,1],[1,0,1,1,0,1,0,1,1,1,1,1,0,0,1,0,1,0,1,0],[1,1,0,0,0,1,1,1,0,0,1,1,1,0,1,1,0,1,0,1],[1,1,1,0,0,1,0,1,0,1,0,0,1,1,1,0,1,0,0,0],[1,1,0,0,0,0,0,0,1,0,0,0,0,1,1,0,0,1,1,0],[1,1,1,1,0,0,0,0,0,1,0,0,1,1,1,1,1,0,1,1],[0,1,1,0,1,1,1,1,1,0,0,1,0,0,1,1,1,1,0,0],[0,0,0,0,0,0,0,1,0,0,0,1,1,0,0,0,0,0,0,1],[1,1,1,0,1,1,0,0,1,1,0,0,1,1,1,1,1,1,1,0],[0,1,1,1,1,1,1,0,0,1,1,0,0,0,0,0,1,1,1,1],[0,1,0,0,1,1,0,1,1,1,1,0,0,1,1,0,0,1,0,1],[0,1,0,1,0,0,0,0,0,0,1,0,1,0,0,1,0,0,0,0],[1,0,1,1,1,0,1,0,0,0,1,0,1,0,0,1,0,1,0,1]],"displayWidth":172,"displayHeight":172,"spacing":100,"style":{"gridBorderColor":"#ffffff","gridBorderWidth":"3","dotColor":"#ffffff","dotLineWidth":"1"}},"pluginResponse":[{"startTime":122239.0000000596,"rt":2118.999999947846,"response":[{"id":0,"name":"Left","answer":6,"prompt":"Left","lastChangedTime":123942.9999999702},{"id":1,"name":"Right","answer":"50","prompt":"Right","lastChangedTime":null}],"stimulusOffTime":899.9999999068677,"trial_type":"canvas-sliders-response","trial_index":62,"time_elapsed":124247,"internal_node_id":"0.0-13.0-0.4"},{"choiceTime":0,"choice":3,"totalTime":2001.9999998621643,"image":"http://localhost:8080/ExploringSocialMetacognition/assets/image/advisor2.png","adviceTime":2001.9999998621643,"trial_type":"jspsych-jas-present-advice-choice","trial_index":63,"time_elapsed":126249,"internal_node_id":"0.0-13.0-1.4"},{"startTime":126361.99999996461,"rt":1265.0000001303852,"response":[{"id":0,"name":"Left","answer":50,"prompt":"Left","lastChangedTime":null},{"id":1,"name":"Right","answer":"11","prompt":"Right","lastChangedTime":127184.0000001248}],"trial_type":"canvas-sliders-response","trial_index":64,"time_elapsed":127515,"internal_node_id":"0.0-13.0-2.4"}],"confidenceCategory":1,"advisorAgrees":true},{"type":1,"typeName":"force","block":2,"advisorId":3,"choice":[],"answer":[0,0],"confidence":[40,0],"whichSide":0,"practice":false,"feedback":false,"warnings":["getConfidenceCategory: too few trials available to estimate confidence"],"stimulusDrawTime":[128528.00000016578],"stimulusOffTime":[900.0000001396984,null],"fixationDrawTime":[128028.00000016578],"id":21,"dotDifference":6,"grid":{"dotCountL":206,"dotCountR":194,"gridWidth":20,"gridHeight":20,"dotWidth":2,"dotHeight":2,"paddingX":6,"paddingY":6,"gridL":[[0,0,0,0,0,0,0,1,1,1,1,1,1,0,1,1,1,1,0,0],[0,0,0,0,1,0,0,1,1,0,0,1,1,1,1,1,1,1,1,0],[0,1,0,1,0,0,1,1,0,1,1,0,0,1,0,0,1,1,0,1],[1,1,1,1,1,0,1,0,1,0,1,0,0,1,1,1,0,0,0,1],[0,0,0,0,1,1,0,1,1,0,0,0,1,0,1,1,0,1,1,0],[0,1,0,1,1,0,0,1,1,0,1,0,0,1,0,1,0,0,0,1],[1,0,1,0,1,1,1,0,1,1,0,1,0,1,0,0,1,0,0,1],[1,0,1,0,1,1,0,0,0,0,0,0,0,0,1,0,0,0,1,0],[1,1,1,0,1,1,0,1,1,1,0,0,1,0,0,1,1,1,0,1],[1,0,1,0,0,1,1,1,0,1,0,1,0,1,1,1,1,0,1,1],[1,0,1,1,1,0,1,0,0,1,1,1,1,0,1,1,0,0,0,1],[0,1,1,1,0,1,0,0,0,0,1,0,0,1,0,1,1,1,1,1],[0,0,1,0,0,1,0,1,0,0,0,1,0,1,0,1,1,1,0,1],[1,0,0,1,0,0,0,0,0,1,1,0,1,0,1,1,0,1,0,1],[1,1,0,1,1,0,0,0,0,0,0,1,1,0,1,0,0,0,0,1],[0,1,0,1,0,1,0,1,1,0,1,0,1,1,1,1,1,0,1,1],[0,1,1,0,1,1,1,1,1,0,1,0,0,1,1,1,0,1,1,0],[0,1,1,0,0,1,1,0,0,1,0,1,0,0,1,1,1,0,0,0],[0,1,1,1,0,0,0,0,1,1,0,0,1,0,1,0,0,0,0,0],[1,0,1,1,0,0,1,1,0,1,1,1,0,1,0,0,0,1,0,1]],"gridR":[[0,0,1,1,0,0,0,0,1,1,1,0,0,0,1,1,1,0,1,0],[1,0,1,1,0,0,0,1,1,1,1,0,0,0,1,1,0,0,0,0],[0,0,0,0,1,0,1,0,0,1,0,1,0,0,1,1,1,0,0,0],[0,0,1,0,1,0,1,1,0,0,0,1,1,0,0,0,1,1,0,1],[0,1,0,0,1,0,0,0,1,1,1,1,1,1,1,1,1,1,0,1],[1,0,1,0,1,0,0,1,1,0,1,0,0,1,0,1,0,0,0,1],[1,0,0,0,1,0,1,1,1,1,0,0,0,0,0,0,0,0,1,1],[0,0,0,1,0,0,0,0,0,0,1,0,1,0,0,1,0,1,0,0],[1,0,1,1,0,0,0,1,0,1,0,1,1,1,1,0,1,1,0,0],[0,1,1,1,0,1,1,0,0,1,1,1,0,0,1,1,0,1,0,1],[0,1,1,1,0,1,1,1,0,1,1,1,0,1,0,1,1,1,1,1],[1,1,1,1,1,0,0,1,1,0,1,0,0,0,0,1,0,1,0,0],[1,0,1,0,0,1,0,0,0,1,1,0,1,1,0,1,1,0,0,0],[0,0,1,1,0,1,1,1,0,0,0,1,1,1,0,0,1,1,1,1],[0,1,0,1,0,1,0,0,0,1,1,1,1,1,0,1,0,0,1,1],[0,1,0,0,1,0,1,0,0,0,1,0,0,1,0,1,0,0,0,1],[1,1,0,1,0,0,0,1,1,1,0,0,0,0,0,0,0,0,0,0],[0,1,1,1,0,1,0,0,1,1,0,0,0,0,0,0,1,0,0,1],[0,1,1,1,0,0,1,0,1,1,0,1,1,1,1,0,0,1,1,0],[0,0,0,1,1,1,0,1,1,1,1,0,0,1,1,1,1,0,0,1]],"displayWidth":172,"displayHeight":172,"spacing":100,"style":{"gridBorderColor":"#ffffff","gridBorderWidth":"3","dotColor":"#ffffff","dotLineWidth":"1"}},"pluginResponse":[{"startTime":127827.99999997951,"rt":2224.00000016205,"response":[{"id":0,"name":"Left","answer":40,"prompt":"Left","lastChangedTime":129570.00000006519},{"id":1,"name":"Right","answer":"50","prompt":"Right","lastChangedTime":null}],"stimulusOffTime":900.0000001396984,"trial_type":"canvas-sliders-response","trial_index":65,"time_elapsed":129941,"internal_node_id":"0.0-13.0-0.5"},{"choiceTime":0,"choice":3,"totalTime":2002.000000094995,"image":"http://localhost:8080/ExploringSocialMetacognition/assets/image/advisor2.png","adviceTime":2002.000000094995,"trial_type":"jspsych-jas-present-advice-choice","trial_index":66,"time_elapsed":131943,"internal_node_id":"0.0-13.0-1.5"},{"startTime":132057.0000000298,"rt":1411.0000000800937,"response":[{"id":0,"name":"Left","answer":0,"prompt":"Left","lastChangedTime":133063.00000008196},{"id":1,"name":"Right","answer":"50","prompt":"Right","lastChangedTime":null}],"trial_type":"canvas-sliders-response","trial_index":67,"time_elapsed":133356,"internal_node_id":"0.0-13.0-2.5"}],"confidenceCategory":1,"advisorAgrees":false},{"type":2,"typeName":"choice","block":2,"advisorId":3,"choice":[2,3],"answer":[1,1],"confidence":[2,51],"whichSide":1,"practice":false,"feedback":false,"warnings":["getConfidenceCategory: too few trials available to estimate confidence"],"stimulusDrawTime":[134370.00000011176],"stimulusOffTime":[900.9999998379499,null],"fixationDrawTime":[133870.00000011176],"id":22,"dotDifference":6,"grid":{"dotCountL":194,"dotCountR":206,"gridWidth":20,"gridHeight":20,"dotWidth":2,"dotHeight":2,"paddingX":6,"paddingY":6,"gridL":[[1,0,0,1,0,1,1,0,0,1,1,1,1,1,0,1,0,0,1,1],[0,1,0,0,1,0,1,0,0,0,0,0,0,1,1,0,1,0,1,0],[1,1,0,1,1,1,0,0,0,1,1,0,1,1,0,0,0,1,1,0],[1,1,0,0,1,0,1,1,0,1,0,1,0,1,0,0,0,0,0,0],[1,0,1,0,1,1,1,1,1,0,0,0,0,0,1,0,0,1,0,0],[1,1,1,1,0,0,1,1,0,0,0,1,1,1,1,0,0,0,0,1],[0,1,1,0,1,0,1,1,1,1,0,1,1,1,0,0,1,0,1,0],[0,0,0,1,0,0,1,0,0,1,0,1,1,1,1,1,1,1,0,0],[1,0,0,0,0,1,0,0,0,1,0,1,0,0,0,1,0,1,1,1],[1,0,0,0,0,0,1,0,0,1,0,1,0,0,1,0,1,1,1,0],[0,1,0,1,1,1,1,1,1,0,0,0,1,1,1,1,1,0,0,0],[0,1,0,1,0,0,1,0,0,0,1,0,0,0,0,0,0,1,1,1],[0,1,0,1,1,1,1,1,0,0,0,1,0,1,0,0,1,1,0,0],[1,1,0,1,1,0,1,1,1,1,0,1,1,0,0,1,0,0,0,1],[1,1,0,1,1,0,1,1,0,0,1,0,0,1,1,1,0,0,1,0],[1,1,0,1,1,1,1,0,0,0,1,0,0,0,1,0,0,0,0,1],[1,1,1,1,0,1,1,0,1,1,1,1,1,1,1,0,0,0,1,0],[0,1,0,0,1,1,0,1,1,0,1,0,1,1,1,0,1,0,1,1],[0,0,0,1,0,1,0,1,0,1,1,0,0,0,1,0,0,0,0,1],[0,0,1,1,1,0,0,0,0,0,0,0,0,0,0,0,1,0,0,0]],"gridR":[[0,0,1,0,1,1,0,1,0,1,0,0,1,1,1,1,1,1,0,0],[1,1,1,0,0,0,1,1,1,0,0,1,1,0,1,1,0,0,1,0],[0,0,0,0,0,0,1,0,0,0,1,0,0,0,1,0,0,0,1,0],[1,0,1,1,1,0,0,1,1,0,1,1,0,1,1,1,0,1,0,1],[0,0,1,1,1,0,1,0,1,1,1,1,0,1,1,1,0,1,1,1],[0,1,1,0,0,0,1,0,1,0,1,1,0,1,1,0,0,1,0,0],[1,0,1,1,0,1,1,0,0,1,1,0,0,1,0,1,1,1,1,1],[1,0,1,1,1,1,0,1,1,0,1,0,1,0,0,1,1,1,0,0],[0,0,0,1,1,1,1,0,0,1,0,0,1,0,1,1,0,1,1,0],[0,0,1,0,1,0,0,0,0,1,1,1,0,1,1,1,0,1,1,1],[1,1,1,1,1,0,1,1,1,0,1,0,0,0,0,0,0,0,0,1],[1,0,0,0,0,1,1,1,0,1,1,0,1,1,0,0,1,1,0,1],[1,1,0,1,0,0,1,1,0,1,0,0,0,1,0,0,0,0,0,0],[1,1,1,1,1,1,1,1,0,1,1,1,1,0,0,1,1,0,1,1],[0,0,1,0,0,1,1,1,0,0,0,0,1,0,1,0,1,0,0,0],[1,0,1,0,1,0,0,1,1,0,1,0,0,1,0,1,1,1,1,1],[0,1,1,0,0,1,0,0,0,0,1,0,0,1,1,0,1,1,0,0],[1,1,1,1,0,0,1,0,0,0,0,1,0,1,0,0,1,0,0,0],[0,1,0,0,1,0,0,1,0,1,0,0,1,1,1,0,0,1,1,0],[0,1,1,1,1,1,1,0,0,0,0,1,1,1,0,0,1,0,0,0]],"displayWidth":172,"displayHeight":172,"spacing":100,"style":{"gridBorderColor":"#ffffff","gridBorderWidth":"3","dotColor":"#ffffff","dotLineWidth":"1"}},"pluginResponse":[{"startTime":133670.00000015832,"rt":1961.9999998249114,"response":[{"id":0,"name":"Left","answer":50,"prompt":"Left","lastChangedTime":null},{"id":1,"name":"Right","answer":"2","prompt":"Right","lastChangedTime":135202.9999999795}],"stimulusOffTime":900.9999998379499,"trial_type":"canvas-sliders-response","trial_index":68,"time_elapsed":135520,"internal_node_id":"0.0-13.0-0.6"},{"choiceTime":1402.0000000018626,"choice":3,"totalTime":3403.999999864027,"image":"http://localhost:8080/ExploringSocialMetacognition/assets/image/advisor2.png","adviceTime":2001.9999998621643,"trial_type":"jspsych-jas-present-advice-choice","trial_index":69,"time_elapsed":138925,"internal_node_id":"0.0-13.0-1.6"},{"startTime":139038.0000001751,"rt":1379.9999998882413,"response":[{"id":0,"name":"Left","answer":50,"prompt":"Left","lastChangedTime":null},{"id":1,"name":"Right","answer":"51","prompt":"Right","lastChangedTime":139822.0000001602}],"trial_type":"canvas-sliders-response","trial_index":70,"time_elapsed":140307,"internal_node_id":"0.0-13.0-2.6"}],"confidenceCategory":1,"advisorAgrees":true},{"type":1,"typeName":"force","block":2,"advisorId":3,"choice":[],"answer":[0,0],"confidence":[8,49],"whichSide":1,"practice":false,"feedback":false,"warnings":["getConfidenceCategory: too few trials available to estimate confidence"],"stimulusDrawTime":[141320.99999999627],"stimulusOffTime":[901.0000000707805,null],"fixationDrawTime":[140820.99999999627],"id":23,"dotDifference":3,"grid":{"dotCountL":197,"dotCountR":203,"gridWidth":20,"gridHeight":20,"dotWidth":2,"dotHeight":2,"paddingX":6,"paddingY":6,"gridL":[[1,1,1,0,1,1,0,0,0,0,0,0,1,1,0,1,1,1,0,0],[0,0,1,1,0,1,0,0,1,0,1,1,1,1,0,1,0,0,0,1],[0,0,1,1,0,0,1,0,0,0,0,1,0,0,0,1,1,0,1,0],[1,1,0,1,0,1,0,1,1,0,0,0,1,1,0,1,1,0,1,0],[0,1,0,1,1,1,1,1,0,0,0,0,0,1,0,0,0,1,0,0],[0,1,1,1,1,0,1,0,0,0,1,0,0,1,0,1,1,0,0,0],[1,1,1,0,1,0,1,0,1,0,0,0,1,0,0,0,0,0,1,0],[1,1,0,1,0,0,0,0,1,0,1,1,0,0,0,0,0,0,0,0],[0,0,0,0,1,1,1,0,1,0,0,1,1,1,1,0,0,1,0,0],[1,1,1,1,1,1,1,1,1,0,1,1,0,1,0,0,1,1,0,0],[0,0,1,1,1,1,1,0,1,1,1,1,0,0,1,0,0,1,1,1],[0,0,0,1,0,1,0,0,1,1,0,1,0,0,1,0,1,1,1,1],[0,1,0,1,1,1,1,0,1,0,0,1,0,1,1,0,1,0,1,0],[0,1,1,1,1,0,0,1,1,0,0,1,1,0,0,0,1,1,0,1],[0,0,0,0,1,1,1,1,1,1,0,1,0,1,0,0,1,1,1,0],[1,1,1,0,1,1,0,1,1,0,0,1,1,0,0,1,0,1,0,1],[1,1,0,1,0,1,1,1,0,0,1,1,1,1,1,0,0,0,1,1],[0,0,1,0,1,1,1,0,0,1,0,1,0,1,0,1,0,0,0,0],[0,0,1,0,0,1,1,1,1,0,1,1,1,0,0,0,1,0,0,0],[0,1,0,1,0,0,0,1,0,0,0,0,0,1,0,1,0,1,1,0]],"gridR":[[1,0,1,0,1,0,0,0,1,0,1,1,1,0,0,0,1,0,0,0],[1,1,1,1,1,1,1,1,1,1,0,1,1,1,1,1,1,0,1,0],[0,0,0,0,0,0,1,1,0,0,1,1,0,1,0,0,1,1,1,1],[1,1,1,1,1,0,0,1,0,0,0,1,0,1,0,1,0,1,1,0],[1,0,0,1,0,0,1,0,0,0,1,0,1,0,1,1,1,1,0,0],[0,0,0,1,0,0,1,1,1,1,0,0,1,1,0,0,0,0,0,1],[0,1,0,1,1,1,1,1,1,0,0,1,1,1,0,0,0,1,0,1],[1,1,1,1,0,1,0,0,1,0,1,1,1,0,1,1,0,0,1,1],[1,1,1,1,0,0,0,0,1,0,1,0,0,1,1,0,1,1,1,1],[0,1,0,0,0,0,0,0,1,1,1,1,0,1,0,1,1,1,1,0],[1,1,0,0,0,0,0,0,1,0,0,1,1,0,0,0,0,1,0,1],[0,1,1,0,1,1,0,1,1,0,0,0,1,1,1,0,1,1,1,0],[0,1,1,1,0,0,1,0,0,0,1,0,1,0,0,1,0,0,0,0],[0,0,0,0,1,1,0,0,0,0,0,1,0,0,1,1,0,0,1,0],[0,1,1,1,0,1,0,0,0,0,1,1,1,1,1,1,1,1,1,0],[1,0,0,1,0,1,0,1,0,1,1,0,1,0,0,1,0,1,0,0],[1,1,1,1,1,1,0,0,1,1,0,0,0,1,1,0,1,0,0,1],[1,0,0,1,0,1,1,1,0,1,1,0,1,0,0,1,0,1,0,1],[0,0,1,0,1,1,0,0,1,0,1,1,1,0,0,1,0,0,0,0],[0,1,1,0,0,0,1,1,0,0,1,1,1,1,1,0,0,0,0,0]],"displayWidth":172,"displayHeight":172,"spacing":100,"style":{"gridBorderColor":"#ffffff","gridBorderWidth":"3","dotColor":"#ffffff","dotLineWidth":"1"}},"pluginResponse":[{"startTime":140621.00000004284,"rt":2097.9999999981374,"response":[{"id":0,"name":"Left","answer":8,"prompt":"Left","lastChangedTime":142316.00000010803},{"id":1,"name":"Right","answer":"50","prompt":"Right","lastChangedTime":null}],"stimulusOffTime":901.0000000707805,"trial_type":"canvas-sliders-response","trial_index":71,"time_elapsed":142608,"internal_node_id":"0.0-13.0-0.7"},{"choiceTime":0,"choice":3,"totalTime":2002.000000094995,"image":"http://localhost:8080/ExploringSocialMetacognition/assets/image/advisor2.png","adviceTime":2002.000000094995,"trial_type":"jspsych-jas-present-advice-choice","trial_index":72,"time_elapsed":144610,"internal_node_id":"0.0-13.0-1.7"},{"startTime":144722.99999999814,"rt":1022.0000001136214,"response":[{"id":0,"name":"Left","answer":49,"prompt":"Left","lastChangedTime":145277.00000000186},{"id":1,"name":"Right","answer":"50","prompt":"Right","lastChangedTime":null}],"trial_type":"canvas-sliders-response","trial_index":73,"time_elapsed":145635,"internal_node_id":"0.0-13.0-2.7"}],"confidenceCategory":1,"advisorAgrees":false},{"type":2,"typeName":"choice","block":2,"advisorId":3,"choice":[3,2],"answer":[0,0],"confidence":[20,49],"whichSide":0,"practice":false,"feedback":false,"warnings":["getConfidenceCategory: too few trials available to estimate confidence"],"stimulusDrawTime":[146648.0000000447],"stimulusOffTime":[900.9999998379499,null],"fixationDrawTime":[146147.00000011362],"id":24,"dotDifference":6,"grid":{"dotCountL":206,"dotCountR":194,"gridWidth":20,"gridHeight":20,"dotWidth":2,"dotHeight":2,"paddingX":6,"paddingY":6,"gridL":[[0,0,1,0,1,0,0,1,1,1,1,1,1,0,0,1,1,0,1,1],[0,0,0,0,1,1,0,0,1,0,0,0,0,0,0,0,0,1,0,1],[0,0,0,1,1,1,1,1,0,0,0,0,0,0,1,1,0,0,0,0],[1,1,0,0,1,1,0,1,1,1,1,1,1,0,0,0,0,1,0,0],[0,0,0,1,1,1,1,1,0,0,0,1,1,0,1,0,0,0,1,0],[1,0,0,1,0,1,1,0,0,1,0,1,1,0,0,1,0,0,1,0],[0,1,0,0,0,0,1,0,1,0,1,0,1,1,1,0,1,1,1,1],[1,1,1,0,1,0,1,0,1,0,1,1,1,0,0,0,1,1,0,1],[1,1,0,1,1,1,0,0,1,0,1,1,1,1,0,1,0,1,0,0],[0,1,1,1,1,0,1,1,1,1,1,0,1,1,1,1,0,1,0,1],[0,1,1,0,1,1,0,1,1,1,0,1,1,0,0,0,0,1,0,1],[0,1,1,1,0,1,1,0,0,1,1,1,0,1,0,0,0,1,0,1],[0,0,0,1,0,0,1,0,0,1,0,0,1,1,0,1,1,1,0,1],[0,1,0,0,0,0,1,1,1,0,1,0,0,0,1,0,0,1,0,1],[0,1,1,0,0,1,1,0,0,1,0,1,0,1,0,0,0,1,1,1],[0,0,1,1,1,1,0,0,0,1,0,1,0,0,1,0,1,1,1,1],[1,0,0,0,1,0,1,0,1,0,1,1,0,0,1,1,0,1,0,1],[1,1,0,1,0,1,0,0,1,0,1,1,0,1,1,1,1,0,1,0],[0,1,1,1,1,1,0,0,0,0,1,1,0,0,0,0,1,0,0,0],[1,1,1,1,1,0,0,1,0,0,1,1,1,1,1,0,1,1,0,0]],"gridR":[[0,1,1,0,0,1,1,0,1,0,0,1,0,0,1,1,0,0,1,1],[0,1,0,1,1,1,1,1,1,0,0,1,1,1,0,1,0,0,1,0],[0,1,0,1,0,0,0,1,1,0,1,1,0,1,1,1,1,0,1,0],[0,0,1,0,1,1,0,0,1,0,0,1,1,1,1,1,1,1,1,0],[0,0,0,1,1,1,0,1,0,0,1,1,1,0,0,1,1,1,0,1],[1,0,0,1,1,0,0,0,1,1,1,0,0,1,1,1,1,0,0,1],[1,1,1,1,1,0,1,0,1,0,0,0,1,1,1,1,0,0,1,0],[1,1,0,1,1,1,0,0,0,1,1,0,1,1,1,1,0,1,1,0],[1,0,1,1,0,1,0,0,0,0,1,0,0,0,0,1,1,1,1,0],[0,0,0,0,1,1,1,0,1,0,0,0,0,0,0,0,1,1,1,0],[0,0,1,0,0,0,0,1,1,0,0,1,0,0,0,1,1,1,1,0],[0,1,0,0,0,0,0,1,0,0,0,1,0,0,1,1,1,1,1,0],[0,1,1,1,0,1,0,1,1,1,0,0,0,0,1,0,0,1,0,0],[0,0,1,0,0,1,1,1,0,1,0,0,0,1,0,0,1,1,1,0],[1,1,0,1,1,0,0,0,0,0,0,0,1,0,0,1,0,0,0,0],[0,0,0,1,1,0,1,0,0,0,0,0,0,1,1,0,1,1,0,0],[0,0,1,1,0,1,0,1,0,0,1,1,1,1,0,0,0,0,0,0],[1,0,0,1,0,0,1,0,1,0,1,1,1,1,0,0,1,0,1,0],[1,1,1,1,0,1,1,0,0,1,1,0,1,1,0,0,0,1,0,0],[0,0,1,1,0,1,1,1,0,1,1,0,0,1,0,0,0,1,1,0]],"displayWidth":172,"displayHeight":172,"spacing":100,"style":{"gridBorderColor":"#ffffff","gridBorderWidth":"3","dotColor":"#ffffff","dotLineWidth":"1"}},"pluginResponse":[{"startTime":145947.0000001602,"rt":2271.9999998807907,"response":[{"id":0,"name":"Left","answer":20,"prompt":"Left","lastChangedTime":147753.00000002608},{"id":1,"name":"Right","answer":"50","prompt":"Right","lastChangedTime":null}],"stimulusOffTime":900.9999998379499,"trial_type":"canvas-sliders-response","trial_index":74,"time_elapsed":148108,"internal_node_id":"0.0-13.0-0.8"},{"choiceTime":1302.000000141561,"choice":3,"totalTime":3305.000000167638,"image":"http://localhost:8080/ExploringSocialMetacognition/assets/image/advisor2.png","adviceTime":2003.000000026077,"trial_type":"jspsych-jas-present-advice-choice","trial_index":75,"time_elapsed":151413,"internal_node_id":"0.0-13.0-1.8"},{"startTime":151526.00000007078,"rt":1658.9999999850988,"response":[{"id":0,"name":"Left","answer":49,"prompt":"Left","lastChangedTime":152722.99999999814},{"id":1,"name":"Right","answer":"50","prompt":"Right","lastChangedTime":null}],"trial_type":"canvas-sliders-response","trial_index":76,"time_elapsed":153073,"internal_node_id":"0.0-13.0-2.8"}],"confidenceCategory":1,"advisorAgrees":true},{"type":2,"typeName":"choice","block":2,"advisorId":3,"choice":[2,3],"answer":[0,0],"confidence":[43,72],"whichSide":0,"practice":false,"feedback":false,"warnings":["getConfidenceCategory: too few trials available to estimate confidence"],"stimulusDrawTime":[154087.00000005774],"stimulusOffTime":[899.9999999068677,null],"fixationDrawTime":[153587.00000005774],"id":25,"dotDifference":6,"grid":{"dotCountL":206,"dotCountR":194,"gridWidth":20,"gridHeight":20,"dotWidth":2,"dotHeight":2,"paddingX":6,"paddingY":6,"gridL":[[1,1,1,1,0,0,0,1,0,1,1,1,1,1,0,1,1,1,0,0],[0,0,1,1,1,0,0,1,1,0,0,0,0,0,1,1,1,0,0,0],[1,0,1,0,0,0,0,0,1,0,1,1,0,0,0,0,1,0,1,1],[1,0,1,0,0,0,1,0,1,1,0,0,1,1,1,1,0,1,0,1],[1,1,1,1,1,1,1,0,0,1,0,1,0,1,0,0,0,0,0,0],[0,0,1,1,0,0,0,1,0,0,1,0,0,0,1,0,1,1,0,1],[0,0,1,1,1,0,0,1,0,0,0,1,1,1,0,0,1,0,1,1],[0,0,0,1,0,0,0,0,1,0,0,1,1,0,0,1,0,0,0,1],[0,1,1,0,0,1,1,0,1,0,1,1,0,0,0,0,0,1,1,1],[0,1,0,0,1,1,1,0,1,0,1,1,1,0,1,1,0,0,0,1],[0,1,1,1,1,1,0,0,0,1,0,0,1,1,1,1,1,0,1,0],[0,1,0,0,1,1,1,0,0,1,0,1,1,0,0,1,0,1,1,0],[0,0,1,0,1,0,1,1,0,1,1,1,1,0,1,1,1,1,1,0],[0,0,1,0,1,1,0,0,0,0,0,1,1,0,0,1,1,1,0,1],[1,0,1,0,0,1,1,0,0,1,1,1,1,1,0,1,1,1,0,1],[1,1,0,1,0,1,1,1,0,1,0,0,1,0,1,0,0,1,0,0],[0,0,0,0,1,1,1,1,1,1,1,0,1,0,1,0,1,1,1,0],[0,0,1,1,0,0,1,1,0,0,0,0,0,1,0,0,1,1,1,0],[0,0,1,0,1,1,1,1,0,1,1,0,0,1,1,1,0,1,1,1],[0,1,0,1,1,0,1,1,1,0,1,1,1,0,0,0,0,1,0,1]],"gridR":[[1,1,0,0,1,1,1,0,0,0,1,1,0,1,0,0,1,1,1,0],[0,1,0,1,0,0,0,0,0,1,1,1,0,1,0,1,1,1,0,1],[0,0,1,1,1,0,0,0,0,1,0,1,1,0,1,1,1,0,1,1],[1,0,0,1,0,0,1,0,1,0,1,0,0,0,0,1,1,1,0,1],[1,0,0,1,1,0,0,1,1,1,1,0,1,1,1,0,1,0,0,1],[0,0,1,1,1,1,0,0,0,1,0,1,1,1,1,1,1,0,1,1],[0,1,0,1,0,1,0,0,0,0,0,0,0,0,0,0,1,0,0,1],[0,0,0,0,0,0,0,1,0,0,1,0,1,0,0,1,1,0,1,0],[0,1,1,0,0,0,0,0,0,0,1,1,0,1,1,1,1,1,0,1],[1,0,0,1,0,1,1,1,0,0,0,1,1,1,0,1,1,1,0,1],[0,0,1,0,0,1,0,1,0,0,1,1,0,0,1,1,1,1,1,0],[0,1,0,0,0,0,0,1,1,1,1,0,0,0,1,0,0,1,0,0],[0,1,1,0,0,0,1,0,0,0,0,1,1,0,1,0,0,0,1,1],[0,1,0,1,0,0,0,0,0,0,0,1,1,1,0,1,1,1,0,0],[0,1,1,1,0,1,0,0,0,1,1,1,1,1,1,1,1,1,0,1],[0,0,1,1,0,1,1,1,1,0,0,0,0,0,1,0,0,1,1,0],[1,1,0,1,0,0,1,0,1,0,1,1,0,0,0,0,0,0,0,0],[0,1,1,1,1,0,0,0,1,0,1,0,1,0,1,1,1,0,1,0],[1,1,0,0,0,1,1,1,1,0,0,1,1,1,0,1,0,1,0,0],[0,0,1,0,1,0,1,0,1,0,0,0,1,1,1,0,1,1,0,1]],"displayWidth":172,"displayHeight":172,"spacing":100,"style":{"gridBorderColor":"#ffffff","gridBorderWidth":"3","dotColor":"#ffffff","dotLineWidth":"1"}},"pluginResponse":[{"startTime":153387.0000001043,"rt":1966.9999999459833,"response":[{"id":0,"name":"Left","answer":43,"prompt":"Left","lastChangedTime":154910.000000149},{"id":1,"name":"Right","answer":"50","prompt":"Right","lastChangedTime":null}],"stimulusOffTime":899.9999999068677,"trial_type":"canvas-sliders-response","trial_index":77,"time_elapsed":155243,"internal_node_id":"0.0-13.0-0.9"},{"choiceTime":881.0000000521541,"choice":3,"totalTime":2884.000000078231,"image":"http://localhost:8080/ExploringSocialMetacognition/assets/image/advisor2.png","adviceTime":2003.000000026077,"trial_type":"jspsych-jas-present-advice-choice","trial_index":78,"time_elapsed":158127,"internal_node_id":"0.0-13.0-1.9"},{"startTime":158241.0000001546,"rt":1547.000000020489,"response":[{"id":0,"name":"Left","answer":72,"prompt":"Left","lastChangedTime":159313.00000008196},{"id":1,"name":"Right","answer":"50","prompt":"Right","lastChangedTime":null}],"trial_type":"canvas-sliders-response","trial_index":79,"time_elapsed":159677,"internal_node_id":"0.0-13.0-2.9"}],"confidenceCategory":1,"advisorAgrees":true},{"type":2,"typeName":"choice","block":2,"advisorId":3,"choice":[3,2],"answer":[0,0],"confidence":[44,67],"whichSide":1,"practice":false,"feedback":false,"warnings":["getConfidenceCategory: too few trials available to estimate confidence"],"stimulusDrawTime":[160690.00000017695],"stimulusOffTime":[900.0000001396984,null],"fixationDrawTime":[160190.00000017695],"id":26,"dotDifference":3,"grid":{"dotCountL":197,"dotCountR":203,"gridWidth":20,"gridHeight":20,"dotWidth":2,"dotHeight":2,"paddingX":6,"paddingY":6,"gridL":[[1,1,0,1,0,1,0,1,1,1,0,1,1,0,1,1,1,0,0,1],[1,0,1,1,0,1,0,0,1,0,0,0,0,0,1,0,1,0,0,0],[0,1,0,1,0,1,1,1,1,0,0,0,0,0,0,0,0,0,1,1],[0,0,1,0,1,0,1,0,0,0,1,0,0,1,1,0,1,0,1,1],[0,0,1,0,1,1,0,0,0,1,0,0,0,0,0,0,0,0,0,1],[0,0,1,0,0,1,1,0,0,1,0,0,0,1,1,1,1,1,1,1],[1,1,1,0,0,1,0,0,0,0,0,1,1,1,0,0,1,1,1,1],[1,1,0,1,1,1,1,1,1,1,0,1,0,0,0,1,0,0,1,1],[1,1,0,1,1,1,1,1,0,0,0,1,0,0,1,1,1,1,1,0],[1,1,1,0,1,1,0,0,0,1,0,1,0,1,1,1,0,1,0,1],[0,1,0,1,1,0,0,1,1,0,1,0,1,0,0,1,0,1,0,0],[1,0,1,0,0,0,1,1,0,1,1,0,0,1,0,1,1,1,0,1],[1,1,0,1,0,0,0,0,0,1,1,1,0,0,0,1,0,0,0,0],[1,0,0,0,0,1,1,0,0,0,0,0,0,0,1,1,1,1,0,0],[0,0,1,1,0,1,0,1,0,1,1,0,0,0,1,1,0,0,0,1],[1,1,0,0,1,1,1,0,1,0,1,1,0,0,1,1,0,1,0,1],[0,0,1,1,0,0,0,0,1,0,1,0,1,0,0,0,1,0,1,0],[0,0,1,1,1,1,1,1,0,0,1,0,0,0,1,1,1,1,1,1],[1,1,1,1,0,1,1,0,1,0,0,1,1,1,0,1,0,0,0,0],[1,0,1,0,0,0,0,1,0,1,1,1,0,1,1,0,1,0,0,0]],"gridR":[[1,1,1,1,1,1,0,0,0,0,0,0,1,1,0,0,1,1,0,0],[1,1,0,0,1,1,1,0,0,0,0,0,0,0,0,1,0,1,0,1],[1,0,0,0,1,1,0,1,0,1,0,0,0,0,0,0,0,0,0,1],[0,0,0,0,1,1,0,0,0,1,1,0,0,0,1,1,0,1,1,0],[0,1,1,0,1,1,0,0,0,1,1,1,1,0,0,0,1,1,1,1],[1,1,0,1,1,0,0,0,0,1,0,0,0,0,1,1,0,1,1,1],[1,1,1,0,0,1,0,1,0,1,1,0,1,0,1,0,0,1,1,1],[0,1,0,0,0,1,0,0,0,1,1,0,1,0,1,0,0,0,1,0],[1,0,0,0,0,1,1,0,0,0,1,1,1,1,0,1,0,1,1,0],[1,1,1,1,0,1,0,0,1,0,0,0,1,0,1,1,0,0,1,1],[0,1,1,1,1,1,1,1,0,1,0,1,0,0,0,0,0,1,1,0],[0,0,1,1,1,0,1,0,0,1,0,0,1,0,1,0,0,0,1,1],[0,0,0,1,1,1,1,0,0,1,1,0,0,0,0,1,1,0,1,1],[0,1,0,1,0,1,1,0,1,0,1,0,1,0,0,1,1,0,1,1],[1,1,1,1,1,1,0,0,0,1,1,0,0,1,1,0,1,0,1,0],[0,0,1,1,1,0,0,1,0,1,1,1,0,1,1,1,1,1,0,1],[1,0,0,1,1,1,1,0,0,0,1,1,1,0,1,0,0,0,0,1],[0,1,1,0,1,1,0,1,1,1,0,0,1,1,0,1,1,1,1,0],[0,1,1,1,0,0,0,1,1,0,0,1,0,0,1,0,1,1,1,1],[1,0,1,0,0,1,1,1,1,0,0,0,0,1,0,0,0,0,1,1]],"displayWidth":172,"displayHeight":172,"spacing":100,"style":{"gridBorderColor":"#ffffff","gridBorderWidth":"3","dotColor":"#ffffff","dotLineWidth":"1"}},"pluginResponse":[{"startTime":159989.9999999907,"rt":2317.9999999701977,"response":[{"id":0,"name":"Left","answer":44,"prompt":"Left","lastChangedTime":161847.00000006706},{"id":1,"name":"Right","answer":"50","prompt":"Right","lastChangedTime":null}],"stimulusOffTime":900.0000001396984,"trial_type":"canvas-sliders-response","trial_index":80,"time_elapsed":162197,"internal_node_id":"0.0-13.0-0.10"},{"choiceTime":1532.999999821186,"choice":3,"totalTime":3534.999999916181,"image":"http://localhost:8080/ExploringSocialMetacognition/assets/image/advisor2.png","adviceTime":2002.000000094995,"trial_type":"jspsych-jas-present-advice-choice","trial_index":81,"time_elapsed":165732,"internal_node_id":"0.0-13.0-1.10"},{"startTime":165844.99999997206,"rt":1101.0000000242144,"response":[{"id":0,"name":"Left","answer":67,"prompt":"Left","lastChangedTime":166350.00000009313},{"id":1,"name":"Right","answer":"50","prompt":"Right","lastChangedTime":null}],"trial_type":"canvas-sliders-response","trial_index":82,"time_elapsed":166835,"internal_node_id":"0.0-13.0-2.10"}],"confidenceCategory":1,"advisorAgrees":false},{"type":1,"typeName":"force","block":2,"advisorId":3,"choice":[],"answer":[1,0],"confidence":[11,17],"whichSide":0,"practice":false,"feedback":false,"warnings":["getConfidenceCategory: too few trials available to estimate confidence"],"stimulusDrawTime":[167849.00000016205],"stimulusOffTime":[901.0000000707805,null],"fixationDrawTime":[167347.99999999814],"id":27,"dotDifference":6,"grid":{"dotCountL":206,"dotCountR":194,"gridWidth":20,"gridHeight":20,"dotWidth":2,"dotHeight":2,"paddingX":6,"paddingY":6,"gridL":[[1,1,1,0,0,1,1,0,1,0,0,0,1,0,0,0,1,0,1,1],[1,0,0,1,1,1,0,1,0,1,1,0,0,0,0,1,1,0,1,1],[1,0,1,0,0,1,1,0,1,1,1,0,0,0,1,1,0,0,0,0],[1,1,0,1,1,0,1,1,0,0,0,0,1,0,0,0,1,0,1,1],[0,0,1,1,0,0,0,1,0,0,1,0,1,1,0,1,0,0,0,0],[1,0,1,1,1,0,1,0,1,1,1,0,1,1,1,1,1,0,0,1],[0,1,1,1,0,0,1,1,1,0,1,0,0,1,1,1,1,1,0,0],[1,0,1,1,0,0,0,0,1,0,0,1,0,1,0,1,0,0,0,0],[0,0,0,1,0,1,0,1,1,1,0,1,1,0,1,0,1,0,0,1],[0,0,1,0,0,1,1,1,0,0,0,0,0,1,0,1,0,1,0,1],[1,1,1,0,1,1,1,1,0,1,1,0,0,1,1,1,0,0,0,1],[1,0,0,1,1,0,1,0,0,1,1,0,1,0,1,1,0,1,1,0],[0,1,1,1,1,0,1,1,1,0,0,1,1,1,0,1,0,0,0,0],[0,1,1,0,0,1,0,0,0,0,1,1,1,1,1,1,0,0,0,1],[1,1,1,1,0,0,1,1,0,0,1,0,1,1,0,1,0,0,0,0],[1,0,1,1,1,1,0,0,0,0,0,1,1,0,1,1,0,0,1,0],[0,1,0,1,1,1,1,0,1,0,1,1,1,1,0,1,1,1,0,0],[1,1,1,0,1,0,1,1,1,0,0,1,0,1,0,0,1,0,1,0],[0,0,0,1,0,1,1,0,1,0,1,1,1,0,0,0,0,0,1,0],[1,1,1,0,0,1,1,1,0,0,0,1,0,1,0,0,1,1,1,0]],"gridR":[[0,0,0,0,1,1,0,1,1,1,0,1,0,1,0,0,0,1,0,0],[0,1,0,1,0,0,1,1,1,0,0,1,1,1,0,0,1,1,0,0],[0,1,0,1,0,1,1,1,1,0,1,0,1,0,1,1,0,0,0,1],[1,1,1,0,0,0,1,1,0,0,0,0,0,1,0,1,0,0,0,0],[1,0,0,0,1,1,0,1,0,1,0,1,0,0,1,0,1,0,0,1],[0,1,1,0,1,0,1,1,0,1,1,0,1,0,0,0,0,1,1,0],[1,0,0,1,0,1,1,0,1,1,0,0,1,0,1,1,0,0,0,1],[0,0,1,0,1,0,1,0,0,0,0,0,0,0,1,1,1,0,0,0],[0,0,1,1,1,1,0,0,0,0,1,1,0,0,1,0,0,1,1,0],[0,1,0,1,0,1,1,1,1,0,1,1,1,0,0,1,0,0,1,1],[0,0,0,1,1,0,0,1,1,1,0,1,1,0,0,0,1,1,0,0],[0,0,1,0,1,1,0,0,0,0,1,0,0,1,0,0,1,0,0,0],[1,0,1,0,0,1,1,1,0,1,0,1,0,0,1,1,0,0,1,1],[0,0,0,1,1,1,0,0,1,0,1,0,0,0,1,0,0,0,0,1],[1,1,0,1,0,1,0,1,1,1,1,1,0,0,0,1,1,0,0,0],[1,1,1,1,1,1,0,0,1,1,0,0,0,0,1,1,1,1,1,0],[0,0,1,0,1,0,1,0,1,1,1,1,1,1,0,1,0,1,0,0],[0,0,1,0,1,1,0,0,0,0,1,1,1,1,1,0,1,1,0,0],[1,0,1,0,0,1,1,0,1,1,1,0,1,1,0,0,0,1,0,1],[0,1,1,0,0,1,1,0,1,1,1,0,1,1,1,1,0,1,1,0]],"displayWidth":172,"displayHeight":172,"spacing":100,"style":{"gridBorderColor":"#ffffff","gridBorderWidth":"3","dotColor":"#ffffff","dotLineWidth":"1"}},"pluginResponse":[{"startTime":167148.0000000447,"rt":2304.9999999348074,"response":[{"id":0,"name":"Left","answer":50,"prompt":"Left","lastChangedTime":null},{"id":1,"name":"Right","answer":"11","prompt":"Right","lastChangedTime":168969.00000004098}],"stimulusOffTime":901.0000000707805,"trial_type":"canvas-sliders-response","trial_index":83,"time_elapsed":169341,"internal_node_id":"0.0-13.0-0.11"},{"choiceTime":0,"choice":3,"totalTime":2003.000000026077,"image":"http://localhost:8080/ExploringSocialMetacognition/assets/image/advisor2.png","adviceTime":2003.000000026077,"trial_type":"jspsych-jas-present-advice-choice","trial_index":84,"time_elapsed":171344,"internal_node_id":"0.0-13.0-1.11"},{"startTime":171456.0000000056,"rt":846.0000001359731,"response":[{"id":0,"name":"Left","answer":17,"prompt":"Left","lastChangedTime":171920.00000015832},{"id":1,"name":"Right","answer":"50","prompt":"Right","lastChangedTime":null}],"trial_type":"canvas-sliders-response","trial_index":85,"time_elapsed":172191,"internal_node_id":"0.0-13.0-2.11"}],"confidenceCategory":1,"advisorAgrees":true},{"type":1,"typeName":"force","block":3,"advisorId":2,"choice":[],"answer":[1,0],"confidence":[33,1],"whichSide":1,"practice":false,"feedback":false,"warnings":["getConfidenceCategory: too few trials available to estimate confidence"],"stimulusDrawTime":[174324.99999995343],"stimulusOffTime":[901.0000000707805,null],"fixationDrawTime":[173826.00000011735],"id":28,"dotDifference":9,"grid":{"dotCountL":191,"dotCountR":209,"gridWidth":20,"gridHeight":20,"dotWidth":2,"dotHeight":2,"paddingX":6,"paddingY":6,"gridL":[[1,0,1,1,0,1,1,1,1,0,1,0,0,1,1,1,0,1,0,1],[0,0,0,0,0,1,0,1,1,0,1,0,1,0,0,1,0,1,1,1],[0,0,1,0,1,1,0,0,0,0,0,0,1,0,1,1,1,0,1,0],[1,1,1,0,0,1,1,1,0,0,0,0,1,0,1,0,1,1,1,0],[1,0,1,1,1,0,0,1,0,1,1,0,0,0,1,1,0,0,0,0],[1,0,1,0,1,1,0,1,1,1,1,0,0,0,1,1,0,0,1,0],[0,1,0,0,1,0,1,1,0,0,0,0,1,1,1,0,0,1,1,1],[1,1,0,0,1,1,1,0,1,1,1,0,1,1,0,0,0,0,0,1],[0,1,0,0,0,0,1,0,1,1,1,1,1,0,0,0,1,1,0,0],[1,1,1,0,0,1,1,1,1,0,1,1,0,0,0,1,0,0,0,0],[1,1,0,0,1,1,1,0,1,0,0,1,0,1,0,1,1,1,0,0],[1,0,0,0,0,0,1,0,0,0,1,1,0,0,1,1,0,0,0,1],[0,1,0,0,0,0,1,1,1,0,0,1,1,0,0,1,1,1,0,0],[1,0,0,0,0,1,0,1,0,1,1,1,0,0,0,0,0,1,0,0],[0,1,1,0,1,1,0,1,1,1,1,0,1,0,0,1,0,0,1,0],[0,0,0,0,1,1,0,1,0,1,1,1,1,1,1,0,1,0,1,1],[1,0,1,1,1,1,1,0,0,1,0,1,0,0,0,0,1,1,0,0],[0,1,0,1,0,1,0,1,0,0,0,0,0,1,0,0,0,1,0,1],[1,1,0,0,0,0,0,0,0,0,1,0,0,0,0,0,1,0,1,0],[0,1,0,1,0,1,0,0,1,1,1,0,0,1,0,1,1,1,1,0]],"gridR":[[1,0,1,1,1,0,1,1,1,1,1,1,0,1,0,0,1,0,1,0],[0,1,1,1,1,1,1,0,1,1,0,0,1,0,1,0,1,1,0,1],[0,0,0,1,1,0,1,0,1,0,0,1,1,0,0,0,0,1,0,1],[0,0,1,1,1,1,1,0,0,0,1,0,0,1,1,0,1,0,0,0],[1,1,0,0,0,1,1,1,1,1,1,0,1,1,0,0,0,1,1,1],[1,1,0,0,1,1,0,1,1,0,1,0,1,0,1,1,0,1,0,0],[0,0,1,0,0,1,0,0,1,1,1,1,0,1,1,1,0,0,0,1],[0,1,1,0,1,1,1,1,0,0,1,1,1,1,1,1,1,1,0,0],[0,0,1,1,0,0,1,1,0,0,1,1,1,1,0,1,1,0,0,0],[0,1,0,0,0,1,0,0,0,0,1,1,1,1,1,0,0,1,0,0],[0,0,1,1,1,1,0,1,0,0,0,1,0,1,0,0,0,1,0,1],[1,0,1,1,0,1,0,0,1,0,0,1,0,1,1,1,0,0,0,1],[0,0,1,0,0,0,1,1,1,1,1,0,1,0,0,0,1,1,1,0],[0,1,1,1,0,1,1,0,0,0,1,0,0,0,0,1,0,1,1,0],[0,1,1,0,0,1,1,1,1,0,0,1,0,1,1,1,0,1,0,1],[1,0,1,1,1,1,1,0,0,0,1,0,0,0,1,0,0,1,0,0],[0,0,0,0,0,1,0,0,1,1,0,0,1,1,1,1,1,0,1,1],[0,1,0,1,0,0,0,1,1,0,0,0,1,1,0,0,1,1,1,1],[0,0,1,1,0,0,1,0,1,0,1,1,0,1,0,1,0,0,1,0],[1,1,0,1,1,1,1,0,0,1,0,1,1,1,0,0,0,1,0,1]],"displayWidth":172,"displayHeight":172,"spacing":100,"style":{"gridBorderColor":"#ffffff","gridBorderWidth":"3","dotColor":"#ffffff","dotLineWidth":"1"}},"pluginResponse":[{"startTime":173625,"rt":1934.0000001247972,"response":[{"id":0,"name":"Left","answer":50,"prompt":"Left","lastChangedTime":null},{"id":1,"name":"Right","answer":"33","prompt":"Right","lastChangedTime":175121.00000004284}],"stimulusOffTime":901.0000000707805,"trial_type":"canvas-sliders-response","trial_index":87,"time_elapsed":175449,"internal_node_id":"0.0-15.0-0.0"},{"choiceTime":0,"choice":2,"totalTime":2002.000000094995,"image":"http://localhost:8080/ExploringSocialMetacognition/assets/image/advisor1.png","adviceTime":2002.000000094995,"trial_type":"jspsych-jas-present-advice-choice","trial_index":88,"time_elapsed":177451,"internal_node_id":"0.0-15.0-1.0"},{"startTime":177563.00000008196,"rt":1354.0000000502914,"response":[{"id":0,"name":"Left","answer":1,"prompt":"Left","lastChangedTime":178288.0000001751},{"id":1,"name":"Right","answer":"50","prompt":"Right","lastChangedTime":null}],"trial_type":"canvas-sliders-response","trial_index":89,"time_elapsed":178806,"internal_node_id":"0.0-15.0-2.0"}],"confidenceCategory":1,"advisorAgrees":false},{"type":2,"typeName":"choice","block":3,"advisorId":2,"choice":[2,3],"answer":[1,1],"confidence":[10,48],"whichSide":1,