{"participantId":1520261538419,"dotCount":200,"dotDifference":4,"difficultyStep":3,"advisors":[{"id":2,"adviceType":0,"voice":{"basePath":"","id":3,"name":"Kate","lines":{"think_left":{"filePath":"assets/audio/voices/3/think_left.wav","string":"I think it was on the LEFT","loaded":true,"loading":true,"data":null,"buffer":{},"side":0,"confidence":0},"think_right":{"filePath":"assets/audio/voices/3/think_right.wav","string":"I think it was on the RIGHT","loaded":true,"loading":true,"data":null,"buffer":{},"side":1,"confidence":0},"left_think":{"filePath":"assets/audio/voices/3/left_think.wav","string":"It was on the LEFT, I think","loaded":true,"loading":true,"data":null,"buffer":{},"side":0,"confidence":0},"right_think":{"filePath":"assets/audio/voices/3/right_think.wav","string":"It was on the RIGHT, I think","loaded":true,"loading":true,"data":null,"buffer":{},"side":1,"confidence":0},"intro":{"filePath":"assets/audio/voices/3/intro.wav","string":"Hello, my name is KATE","loaded":true,"loading":true,"data":null,"buffer":{},"side":false}}},"name":"Kate","portrait":{},"portraitSrc":"http://localhost:8080/ExploringSocialMetacognition/assets/image/advisor3.png"},{"id":1,"adviceType":2,"voice":{"basePath":"","id":2,"name":"Bea","lines":{"think_left":{"filePath":"assets/audio/voices/2/think_left.wav","string":"I think it was on the LEFT","loaded":true,"loading":true,"data":null,"buffer":{},"side":0,"confidence":0},"think_right":{"filePath":"assets/audio/voices/2/think_right.wav","string":"I think it was on the RIGHT","loaded":true,"loading":true,"data":null,"buffer":{},"side":1,"confidence":0},"left_think":{"filePath":"assets/audio/voices/2/left_think.wav","string":"It was on the LEFT, I think","loaded":true,"loading":true,"data":null,"buffer":{},"side":0,"confidence":0},"right_think":{"filePath":"assets/audio/voices/2/right_think.wav","string":"It was on the RIGHT, I think","loaded":true,"loading":true,"data":null,"buffer":{},"side":1,"confidence":0},"intro":{"filePath":"assets/audio/voices/2/intro.wav","string":"Hello, my name is BEA","loaded":true,"loading":true,"data":null,"buffer":{},"side":false}}},"name":"Bea","portrait":{},"portraitSrc":"http://localhost:8080/ExploringSocialMetacognition/assets/image/advisor1.png"},{"id":3,"adviceType":1,"voice":{"basePath":"","id":1,"name":"Annie","lines":{"think_left":{"filePath":"assets/audio/voices/1/think_left.wav","string":"I think it was on the LEFT","loaded":true,"loading":true,"data":null,"buffer":{},"side":0,"confidence":0},"think_right":{"filePath":"assets/audio/voices/1/think_right.wav","string":"I think it was on the RIGHT","loaded":true,"loading":true,"data":null,"buffer":{},"side":1,"confidence":0},"left_think":{"filePath":"assets/audio/voices/1/left_think.wav","string":"It was on the LEFT, I think","loaded":true,"loading":true,"data":null,"buffer":{},"side":0,"confidence":0},"right_think":{"filePath":"assets/audio/voices/1/right_think.wav","string":"It was on the RIGHT, I think","loaded":true,"loading":true,"data":null,"buffer":{},"side":1,"confidence":0},"intro":{"filePath":"assets/audio/voices/1/intro.wav","string":"Hello, my name is ANNIE","loaded":true,"loading":true,"data":null,"buffer":{},"side":false}}},"name":"Annie","portrait":{},"portraitSrc":"http://localhost:8080/ExploringSocialMetacognition/assets/image/advisor2.png"}],"blockCount":2,"blockStructure":{"0":0,"1":6,"2":6},"blockLength":12,"practiceBlockCount":1,"practiceBlockStructure":{"0":0,"1":4,"2":0},"practiceBlockLength":4,"preTrialInterval":200,"preStimulusInterval":500,"stimulusDuration":200,"feedbackDuration":200,"questionnaireFrequency":4,"questionnaireStack":[],"miscTrials":[{"view_history":"[{\"page_index\":0,\"viewing_time\":1205},{\"page_index\":1,\"viewing_time\":739}]","rt":1944,"trial_type":"instructions","trial_index":0,"time_elapsed":1946,"internal_node_id":"0.0-0.0"},{"view_history":"[{\"page_index\":0,\"viewing_time\":1271}]","rt":1271,"trial_type":"instructions","trial_index":2,"time_elapsed":5515,"internal_node_id":"0.0-2.0"},{"view_history":"[{\"page_index\":0,\"viewing_time\":630}]","rt":630,"trial_type":"instructions","trial_index":4,"time_elapsed":8521,"internal_node_id":"0.0-4.0"},{"view_history":"[{\"page_index\":0,\"viewing_time\":874}]","rt":874,"trial_type":"instructions","trial_index":8,"time_elapsed":16258,"internal_node_id":"0.0-6.0"},{"view_history":"[{\"page_index\":0,\"viewing_time\":767}]","rt":768,"trial_type":"instructions","trial_index":22,"time_elapsed":44790,"internal_node_id":"0.0-9.0"},{"view_history":"[{\"page_index\":0,\"viewing_time\":723}]","rt":724,"trial_type":"instructions","trial_index":23,"time_elapsed":45514,"internal_node_id":"0.0-10.0"},{"view_history":"[{\"page_index\":0,\"viewing_time\":938}]","rt":938,"trial_type":"instructions","trial_index":62,"time_elapsed":128114,"internal_node_id":"0.0-14.0"}],"trials":[{"type":1,"typeName":"force","block":1,"advisorId":0,"choice":[],"answer":[0,null],"confidence":[75,null],"whichSide":0,"practice":true,"feedback":true,"warnings":[],"stimulusDrawTime":[2814.9999999441206],"stimulusOffTime":[null],"fixationDrawTime":[2315.999999875203],"id":1,"dotDifference":30,"grid":{"dotCountL":230,"dotCountR":170,"gridWidth":20,"gridHeight":20,"dotWidth":2,"dotHeight":2,"paddingX":6,"paddingY":6,"gridL":[[0,1,0,1,0,1,0,1,0,1,0,0,1,1,0,0,1,0,1,0],[1,0,0,0,0,0,1,1,1,0,1,1,1,0,0,0,0,0,0,1],[0,1,1,0,0,0,1,1,1,1,0,0,1,0,0,1,1,1,1,1],[1,1,1,1,1,1,1,1,0,0,1,1,0,0,1,0,0,1,1,1],[1,0,1,0,0,0,1,1,0,0,1,0,1,1,0,0,0,0,1,1],[1,1,1,0,0,1,1,0,1,0,0,0,1,1,1,0,0,0,0,1],[1,1,1,0,1,1,0,1,1,1,1,0,1,1,0,1,1,1,0,1],[0,1,0,0,0,1,0,1,1,1,1,0,0,1,1,1,0,1,1,0],[1,0,0,1,1,1,1,1,0,1,0,1,0,1,1,0,0,1,1,0],[1,0,0,1,0,0,1,1,1,1,0,1,1,0,1,0,0,1,1,1],[1,0,1,1,1,0,1,1,1,1,1,1,0,1,0,1,1,1,0,0],[0,1,1,0,0,1,1,1,1,0,0,1,1,1,1,1,1,0,1,1],[1,1,1,0,1,0,0,1,0,1,0,0,0,0,1,1,0,1,0,1],[0,0,1,1,0,0,1,1,1,1,1,1,1,1,1,1,0,0,0,0],[0,1,0,0,1,1,1,0,1,1,1,1,0,0,0,1,0,1,1,1],[0,0,1,0,0,0,1,0,0,0,1,1,0,0,1,1,1,1,0,0],[0,0,0,0,1,1,0,1,0,1,1,0,1,1,1,0,1,1,0,0],[0,1,1,1,0,1,0,1,1,1,0,0,0,1,0,1,1,1,0,1],[0,0,1,1,0,0,0,1,0,1,1,1,1,1,1,0,1,1,1,1],[1,1,0,1,0,1,1,1,0,0,0,1,1,1,1,0,1,1,0,1]],"gridR":[[1,0,1,0,1,0,1,0,0,0,1,0,0,0,0,0,0,1,1,1],[1,1,0,1,1,1,0,0,1,1,1,1,1,0,0,0,0,1,0,1],[0,0,0,0,1,0,1,1,0,1,1,0,0,1,0,0,1,0,0,0],[1,1,1,0,0,0,0,1,1,0,1,0,0,0,0,0,0,1,0,0],[0,0,1,1,0,1,0,1,0,1,0,1,1,1,0,0,1,0,0,1],[0,0,0,0,0,0,0,0,1,1,0,1,0,0,0,0,0,1,0,0],[0,0,0,0,0,0,1,0,1,0,1,1,0,0,1,1,0,0,0,1],[0,0,0,1,1,0,1,0,0,0,1,0,0,1,0,0,0,0,1,0],[0,0,0,1,0,0,0,0,0,1,1,1,1,0,1,0,1,1,1,0],[0,0,0,0,0,1,0,1,1,0,1,0,0,0,1,1,1,1,0,1],[1,0,0,0,0,1,1,0,1,1,1,0,1,1,1,0,0,0,1,1],[1,0,1,0,0,1,1,0,1,0,0,0,0,1,1,0,0,1,1,1],[0,0,1,0,0,1,0,0,0,0,0,0,1,0,0,1,0,0,1,1],[0,1,1,1,1,0,1,1,0,0,1,1,0,0,1,1,0,0,1,1],[1,0,0,1,0,1,0,0,0,1,0,0,1,0,1,1,0,1,0,1],[1,0,1,1,1,0,0,0,1,0,0,0,0,0,0,1,1,1,1,1],[0,0,0,0,0,1,0,1,1,0,0,1,0,0,1,0,1,0,0,1],[0,0,1,0,1,0,1,1,0,1,1,1,1,0,0,0,0,1,0,1],[1,0,1,0,1,0,1,0,0,0,0,0,0,1,0,0,1,0,0,1],[1,1,0,0,0,0,1,0,0,0,0,1,1,1,0,1,0,1,1,0]],"displayWidth":172,"displayHeight":172,"spacing":100,"style":{"gridBorderColor":"#ffffff","gridBorderWidth":"3","dotColor":"#ffffff","dotLineWidth":"1"}},"pluginResponse":[{"startTime":2114.999999990687,"rt":2094.000000040978,"response":[{"id":0,"name":"Left","answer":75,"prompt":"Left","lastChangedTime":3691.999999806285},{"id":1,"name":"Right","answer":"50","prompt":"Right","lastChangedTime":null}],"trial_type":"canvas-sliders-response","trial_index":1,"time_elapsed":4042,"internal_node_id":"0.0-1.0"}]},{"type":1,"typeName":"force","block":1,"advisorId":0,"choice":[],"answer":[1,null],"confidence":[73,null],"whichSide":1,"practice":true,"feedback":true,"warnings":[],"stimulusDrawTime":[6382.999999914318],"stimulusOffTime":[null],"fixationDrawTime":[5882.999999914318],"id":2,"dotDifference":30,"grid":{"dotCountL":170,"dotCountR":230,"gridWidth":20,"gridHeight":20,"dotWidth":2,"dotHeight":2,"paddingX":6,"paddingY":6,"gridL":[[0,0,0,0,0,1,1,0,1,1,0,0,0,1,0,1,0,0,0,1],[0,0,1,1,1,0,1,1,1,0,1,1,0,1,1,0,0,1,0,1],[1,1,1,1,1,0,1,0,0,1,1,1,1,0,0,0,1,0,0,0],[0,1,1,0,1,1,0,1,0,0,1,0,1,1,1,1,1,0,0,0],[1,1,0,0,0,1,0,1,1,1,0,0,1,0,0,1,0,1,0,1],[1,0,0,1,0,0,0,1,1,1,1,0,1,0,1,0,0,0,0,0],[0,0,0,0,1,0,0,0,0,1,1,0,0,1,1,0,0,1,0,0],[0,0,0,1,0,1,0,1,1,0,0,1,0,0,0,0,1,0,1,0],[0,0,0,0,0,0,1,0,0,0,0,0,0,0,1,1,1,0,1,0],[1,0,0,1,0,0,0,1,0,1,1,1,0,0,0,0,0,0,0,0],[1,0,1,0,0,1,0,1,1,1,0,1,0,1,1,0,0,0,0,0],[0,1,1,1,0,0,0,0,0,1,0,0,0,1,0,0,0,1,1,1],[1,1,0,1,1,0,0,1,1,0,0,0,1,0,0,1,1,0,0,1],[1,0,1,0,1,1,1,0,1,1,0,1,0,0,0,0,1,0,0,1],[0,1,1,1,1,0,1,0,0,0,1,0,0,0,0,0,0,0,1,1],[0,1,0,1,0,0,0,0,0,0,1,0,0,1,0,0,0,0,0,0],[1,1,0,0,0,1,1,1,1,1,1,1,0,0,1,0,0,1,0,0],[1,0,1,1,0,0,1,0,0,1,1,0,1,1,0,0,0,0,1,1],[1,1,1,0,0,1,0,1,0,1,0,0,1,0,0,1,0,1,1,0],[0,0,0,1,1,0,0,0,0,0,1,1,0,0,0,0,1,0,1,1]],"gridR":[[0,0,0,1,1,1,1,1,1,0,1,1,1,0,1,0,0,0,0,0],[0,0,0,0,1,1,1,0,0,1,0,1,1,0,0,0,1,1,1,0],[1,0,1,1,1,0,0,1,1,0,0,1,0,1,1,1,0,1,1,0],[1,0,0,1,0,0,0,1,1,1,1,1,1,1,1,1,1,0,0,1],[0,1,1,1,1,0,0,0,1,1,1,1,0,0,1,0,1,1,0,1],[1,0,1,0,1,0,1,0,1,1,1,0,1,1,1,0,1,1,0,1],[1,0,1,1,0,0,0,1,0,1,1,0,0,1,0,1,0,0,0,1],[1,0,0,0,1,1,0,0,0,0,0,0,1,1,0,0,1,1,1,0],[0,1,1,1,1,1,0,0,0,1,1,0,1,1,0,1,0,1,0,0],[1,0,0,0,0,1,1,1,1,0,0,1,1,1,1,1,1,0,0,0],[1,1,1,0,1,1,0,1,0,0,1,0,1,1,0,0,1,1,1,0],[0,0,1,0,1,0,0,0,1,1,0,1,1,0,1,1,1,1,0,1],[1,1,0,0,1,1,1,1,0,1,0,1,0,0,0,1,1,1,0,0],[1,0,0,0,1,1,0,1,1,1,0,1,0,1,1,1,1,0,1,1],[1,0,0,0,1,1,0,1,1,1,1,1,1,1,0,1,1,1,0,1],[1,0,1,0,0,1,1,1,1,0,0,0,0,0,0,1,1,1,1,0],[1,1,1,0,0,1,0,0,0,1,1,0,1,0,1,0,1,0,1,1],[1,1,1,1,1,0,1,1,1,1,0,0,1,1,0,0,1,0,1,0],[1,1,0,1,0,1,0,0,1,1,1,1,1,1,0,0,0,1,1,1],[0,0,0,1,1,1,1,1,1,0,0,1,1,0,1,1,1,1,1,1]],"displayWidth":172,"displayHeight":172,"spacing":100,"style":{"gridBorderColor":"#ffffff","gridBorderWidth":"3","dotColor":"#ffffff","dotLineWidth":"1"}},"pluginResponse":[{"startTime":5682.999999960884,"rt":2175.000000046566,"response":[{"id":0,"name":"Left","answer":50,"prompt":"Left","lastChangedTime":null},{"id":1,"name":"Right","answer":"73","prompt":"Right","lastChangedTime":7361.99999996461}],"trial_type":"canvas-sliders-response","trial_index":3,"time_elapsed":7691,"internal_node_id":"0.0-3.0"}]},{"type":1,"typeName":"force","block":1,"advisorId":1,"choice":[],"answer":[1,1],"confidence":[59,72],"whichSide":1,"practice":true,"feedback":true,"warnings":["getConfidenceCategory: too few trials available to estimate confidence"],"stimulusDrawTime":[9388.999999966472],"stimulusOffTime":[null,null],"fixationDrawTime":[8888.999999966472],"id":3,"dotDifference":30,"grid":{"dotCountL":170,"dotCountR":230,"gridWidth":20,"gridHeight":20,"dotWidth":2,"dotHeight":2,"paddingX":6,"paddingY":6,"gridL":[[1,0,0,0,1,0,1,0,0,0,1,1,0,0,0,0,1,0,1,0],[1,0,0,0,1,0,1,0,0,0,0,1,0,1,0,1,0,1,1,0],[0,0,0,0,1,0,1,1,1,0,0,0,0,1,0,1,1,0,1,0],[0,1,0,1,0,0,0,1,1,1,0,0,0,0,0,1,0,0,1,1],[0,0,0,0,1,0,0,0,0,0,1,0,1,1,0,0,1,0,1,1],[0,0,0,1,1,1,0,1,0,1,0,1,0,0,1,0,1,1,0,0],[0,1,1,0,0,1,1,1,0,1,0,0,0,1,0,1,0,1,0,0],[1,0,1,0,1,0,0,1,0,1,1,1,0,1,1,1,1,1,0,0],[1,0,0,0,1,0,0,0,0,0,0,0,0,0,0,0,0,0,0,0],[1,0,1,0,1,1,0,0,0,1,0,0,1,1,0,0,1,1,0,0],[1,0,1,0,0,0,0,0,1,1,1,1,1,1,0,1,0,1,1,0],[0,0,0,0,1,1,0,0,1,0,1,1,0,1,0,1,1,1,1,0],[1,0,0,0,0,1,0,0,0,0,1,0,0,1,0,1,1,1,0,0],[0,0,1,0,1,1,0,0,1,0,0,0,0,1,1,1,0,0,1,0],[0,1,0,1,0,1,1,1,0,0,0,0,0,0,1,0,0,1,1,0],[1,0,1,0,0,1,1,0,0,1,0,0,1,0,1,1,1,1,1,0],[0,0,1,1,1,1,0,0,0,0,1,1,0,0,1,1,0,1,1,1],[1,1,0,1,1,0,0,0,1,1,0,1,0,0,1,1,1,0,0,0],[0,1,0,0,0,0,0,0,0,0,0,0,1,0,0,1,1,0,1,0],[0,1,1,1,0,0,0,1,1,0,0,0,0,1,0,1,1,0,1,1]],"gridR":[[1,1,1,1,1,0,0,0,1,1,1,1,1,1,1,0,0,1,1,1],[1,1,0,1,1,0,1,1,1,1,0,0,0,1,0,0,0,0,1,0],[1,1,1,0,1,0,1,1,0,1,1,1,1,0,0,1,0,0,1,1],[1,1,0,0,0,0,1,0,1,0,0,0,0,0,1,0,1,1,0,1],[1,0,1,1,1,1,1,1,0,1,0,0,1,1,0,1,1,0,0,0],[1,1,1,1,1,1,1,1,1,0,0,0,0,1,1,1,1,0,0,1],[0,0,1,0,1,0,0,1,1,1,0,0,0,1,1,1,1,0,0,1],[0,0,0,1,0,0,1,1,1,1,1,1,1,1,1,1,0,0,1,0],[0,1,0,1,1,1,1,1,1,0,1,1,1,1,1,1,1,0,0,1],[1,1,1,1,1,1,1,1,1,1,0,1,0,1,0,0,0,0,0,0],[0,1,1,1,0,1,1,0,1,0,0,0,1,0,1,1,1,1,1,0],[0,1,0,0,0,0,1,0,1,1,0,0,0,1,0,1,1,0,1,0],[1,1,1,1,1,1,0,1,1,1,1,0,0,1,1,0,0,1,1,0],[0,1,0,1,1,0,0,1,0,1,1,1,0,1,0,0,0,1,0,1],[1,0,1,1,0,0,1,0,1,1,0,1,1,0,0,1,1,0,1,1],[1,1,1,1,0,0,0,1,0,0,0,0,1,0,1,0,0,1,1,0],[1,0,0,0,0,1,0,1,1,0,1,1,0,1,0,1,1,1,0,0],[1,1,0,1,0,1,1,0,1,1,1,0,1,1,1,0,0,1,1,0],[0,1,1,1,0,0,1,0,0,0,0,0,1,1,1,1,1,1,1,1],[0,1,1,1,0,1,1,1,0,0,0,1,0,0,1,1,0,0,0,0]],"displayWidth":172,"displayHeight":172,"spacing":100,"style":{"gridBorderColor":"#ffffff","gridBorderWidth":"3","dotColor":"#ffffff","dotLineWidth":"1"}},"pluginResponse":[{"startTime":8689.000000013039,"rt":3261.9999998714775,"response":[{"id":0,"name":"Left","answer":50,"prompt":"Left","lastChangedTime":null},{"id":1,"name":"Right","answer":"59","prompt":"Right","lastChangedTime":11422.00000002049}],"trial_type":"canvas-sliders-response","trial_index":5,"time_elapsed":11784,"internal_node_id":"0.0-5.0-0.0"},{"choiceTime":0,"choice":1,"totalTime":2004.9999998882413,"image":"http://localhost:8080/ExploringSocialMetacognition/assets/image/advisor1.png","adviceTime":2004.9999998882413,"trial_type":"jspsych-jas-present-advice-choice","trial_index":6,"time_elapsed":13991,"internal_node_id":"0.0-5.0-1.0"},{"startTime":14159.999999916181,"rt":1189.9999999441206,"response":[{"id":0,"name":"Left","answer":50,"prompt":"Left","lastChangedTime":null},{"id":1,"name":"Right","answer":"72","prompt":"Right","lastChangedTime":14878.000000026077}],"trial_type":"canvas-sliders-response","trial_index":7,"time_elapsed":15183,"internal_node_id":"0.0-5.0-2.0"}],"confidenceCategory":1,"advisorAgrees":true,"advice":{"filePath":"assets/audio/voices/2/think_right.wav","string":"I think it was on the RIGHT","loaded":true,"loading":true,"data":null,"buffer":{},"side":1,"confidence":0}},{"type":1,"typeName":"force","block":1,"advisorId":1,"choice":[],"answer":[0,0],"confidence":[66,66],"whichSide":0,"practice":true,"feedback":true,"warnings":[],"stimulusDrawTime":[17125.999999931082],"stimulusOffTime":[899.9999999068677,null],"fixationDrawTime":[16625.999999931082],"id":4,"dotDifference":27,"grid":{"dotCountL":227,"dotCountR":173,"gridWidth":20,"gridHeight":20,"dotWidth":2,"dotHeight":2,"paddingX":6,"paddingY":6,"gridL":[[1,0,0,0,1,0,1,1,1,1,0,0,0,1,1,1,1,0,1,1],[0,0,1,0,1,0,0,1,1,0,1,0,1,1,1,1,0,1,0,1],[0,1,1,0,1,0,1,0,1,1,1,1,1,1,0,1,0,0,1,1],[1,1,0,0,0,1,0,1,1,1,0,1,1,0,1,1,1,0,0,0],[0,0,1,1,1,1,1,0,1,0,1,0,1,1,0,1,0,0,1,1],[0,0,1,0,0,1,0,1,1,1,0,1,0,0,0,1,0,1,1,1],[0,0,1,0,0,0,1,0,0,0,0,0,1,1,0,1,1,0,1,0],[1,1,0,1,0,1,0,0,1,1,1,0,0,0,1,0,0,0,0,0],[0,1,1,0,1,1,0,1,0,0,1,1,0,0,0,0,1,1,1,0],[1,1,1,1,0,1,0,1,0,1,0,1,1,1,0,1,1,1,1,0],[1,1,1,1,1,0,0,0,1,0,0,1,0,1,0,1,1,0,1,1],[1,0,1,1,0,1,0,0,1,1,1,0,1,0,1,0,1,0,0,1],[1,1,1,1,0,1,0,1,0,0,0,0,1,0,1,1,0,1,0,1],[1,0,0,0,1,1,0,1,1,1,0,0,0,1,1,1,1,1,1,0],[1,1,1,1,1,1,0,1,1,0,1,1,1,1,0,0,1,1,0,0],[0,1,1,1,0,0,0,1,0,1,1,1,1,0,1,1,1,0,1,0],[1,0,0,1,1,1,1,0,0,1,1,0,1,0,1,0,0,0,0,0],[1,1,0,1,0,1,1,1,1,1,0,1,1,0,0,1,0,1,1,1],[1,0,0,1,1,1,0,1,1,1,1,0,1,1,0,1,1,0,1,1],[0,1,1,1,1,0,0,0,1,1,0,0,0,1,0,1,0,1,1,0]],"gridR":[[0,1,1,0,0,0,1,1,0,0,1,0,0,1,0,1,0,0,0,0],[1,1,0,0,1,0,0,0,0,1,0,1,1,0,0,1,0,1,0,0],[1,0,1,0,0,1,0,0,0,1,0,0,1,1,1,1,1,0,0,0],[1,0,1,0,0,0,1,1,1,0,0,0,0,0,1,1,0,1,1,0],[1,0,0,1,1,0,1,1,0,0,1,0,1,0,0,1,0,1,1,0],[0,1,1,0,0,1,1,0,1,1,0,0,1,1,0,1,1,1,0,1],[0,1,0,1,1,1,0,1,1,0,1,0,0,0,0,0,0,1,0,1],[0,0,0,1,1,0,1,1,0,0,0,0,0,0,1,0,1,0,0,1],[0,1,0,0,1,1,0,0,0,0,1,0,0,0,1,0,0,1,0,1],[1,0,1,0,0,0,1,1,0,1,0,0,0,1,1,0,0,1,0,0],[0,1,1,1,0,0,0,1,0,1,0,1,1,0,0,0,0,1,1,0],[1,1,0,0,0,0,1,0,0,0,0,0,1,0,0,1,0,1,0,1],[0,1,0,0,0,0,0,0,1,0,0,0,0,0,0,0,0,1,1,0],[0,1,0,0,1,0,0,1,0,1,0,1,0,1,0,0,0,1,0,1],[0,1,0,1,0,0,0,0,1,0,1,0,1,0,1,0,0,1,1,0],[0,1,0,0,1,0,0,0,1,0,0,1,1,1,1,1,0,1,0,0],[0,0,0,0,1,0,1,0,0,1,0,0,0,1,1,0,1,0,1,0],[1,1,0,1,0,0,0,1,0,1,1,1,1,0,0,0,1,0,0,1],[1,1,1,1,0,0,0,0,0,1,0,1,1,1,1,1,1,1,0,1],[1,1,1,0,1,1,1,1,0,0,0,1,1,0,1,0,1,0,1,0]],"displayWidth":172,"displayHeight":172,"spacing":100,"style":{"gridBorderColor":"#ffffff","gridBorderWidth":"3","dotColor":"#ffffff","dotLineWidth":"1"}},"pluginResponse":[{"startTime":16425.99999997765,"rt":2659.999999916181,"response":[{"id":0,"name":"Left","answer":66,"prompt":"Left","lastChangedTime":18585.99999989383},{"id":1,"name":"Right","answer":"50","prompt":"Right","lastChangedTime":null}],"stimulusOffTime":899.9999999068677,"trial_type":"canvas-sliders-response","trial_index":9,"time_elapsed":18920,"internal_node_id":"0.0-7.0-0.0"},{"choiceTime":0,"choice":1,"totalTime":2003.000000026077,"image":"http://localhost:8080/ExploringSocialMetacognition/assets/image/advisor1.png","adviceTime":2003.000000026077,"trial_type":"jspsych-jas-present-advice-choice","trial_index":10,"time_elapsed":20923,"internal_node_id":"0.0-7.0-1.0"},{"startTime":21091.0000000149,"rt":501.99999986216426,"response":[{"id":0,"name":"Left","answer":50,"prompt":"Left","lastChangedTime":null},{"id":1,"name":"Right","answer":"50","prompt":"Right","lastChangedTime":null}],"trial_type":"canvas-sliders-response","trial_index":11,"time_elapsed":21426,"internal_node_id":"0.0-7.0-2.0"}],"confidenceCategory":0,"advisorAgrees":true,"advice":{"filePath":"assets/audio/voices/2/think_left.wav","string":"I think it was on the LEFT","loaded":true,"loading":true,"data":null,"buffer":{},"side":0,"confidence":0}},{"type":1,"typeName":"force","block":1,"advisorId":1,"choice":[],"answer":[0,0],"confidence":[63,82],"whichSide":0,"practice":true,"feedback":true,"warnings":[],"stimulusDrawTime":[22496.999999973923],"stimulusOffTime":[901.0000000707805,null],"fixationDrawTime":[21996.999999973923],"id":5,"dotDifference":24,"grid":{"dotCountL":224,"dotCountR":176,"gridWidth":20,"gridHeight":20,"dotWidth":2,"dotHeight":2,"paddingX":6,"paddingY":6,"gridL":[[1,0,0,0,1,1,0,0,1,1,1,1,0,0,0,0,1,1,1,1],[0,1,1,0,0,1,1,1,1,1,1,1,1,0,0,1,1,1,1,1],[1,1,1,1,1,0,1,1,0,0,0,0,0,0,1,0,0,0,1,1],[1,0,1,0,1,1,1,1,1,1,1,1,0,0,1,1,1,1,1,0],[0,0,1,1,1,1,1,1,1,0,1,1,1,0,0,0,1,0,1,0],[1,1,1,0,1,1,1,0,0,0,0,1,1,0,0,0,0,0,1,0],[0,0,0,1,0,1,1,1,1,0,1,1,1,1,1,1,1,0,1,1],[1,1,0,0,1,0,1,1,1,0,0,0,0,1,1,1,0,1,0,1],[0,0,0,1,1,1,1,1,0,1,1,0,1,1,1,0,0,0,1,1],[1,1,0,0,1,0,1,0,1,0,0,0,0,0,0,0,1,1,0,0],[1,0,1,0,1,1,0,0,0,1,1,1,1,0,1,0,0,1,1,0],[0,0,1,0,1,0,1,1,0,0,1,1,1,0,0,1,0,1,0,1],[1,1,1,1,0,1,1,1,0,1,1,1,1,0,0,1,1,1,1,0],[0,1,0,1,0,0,0,0,1,0,1,0,1,1,0,1,1,1,1,1],[0,0,1,0,0,1,1,0,0,1,0,1,1,0,1,1,1,0,1,0],[0,1,0,1,1,0,1,1,1,0,1,1,0,1,1,1,0,1,0,0],[1,0,0,1,1,1,0,0,0,0,0,0,1,1,0,0,1,0,1,0],[1,1,0,0,1,1,0,1,1,0,1,0,0,0,1,0,1,1,1,0],[1,1,0,1,0,0,1,0,1,1,0,1,0,1,0,1,1,1,1,0],[0,0,0,0,1,1,1,0,0,0,1,0,0,1,1,1,1,0,0,0]],"gridR":[[0,1,1,1,0,0,0,0,1,0,0,0,1,0,1,1,1,0,1,0],[1,1,0,0,0,0,0,1,0,0,1,1,1,1,1,0,1,1,0,0],[0,1,1,1,0,1,1,1,0,0,1,1,1,0,1,0,1,0,1,0],[0,0,0,0,1,0,0,0,1,0,0,0,0,1,1,0,1,0,1,1],[1,0,0,1,0,1,0,0,0,0,0,1,0,0,1,0,0,0,0,1],[1,1,0,0,0,0,0,0,1,1,1,0,1,0,0,0,0,1,1,1],[0,0,1,1,0,0,1,0,0,1,0,1,0,0,1,0,1,1,1,1],[0,1,1,1,1,1,1,0,0,1,0,0,0,0,1,0,0,0,1,0],[0,0,1,1,0,1,1,1,0,0,0,1,1,1,0,1,1,1,0,0],[1,0,1,0,1,0,0,0,1,1,0,1,0,0,0,0,1,0,0,0],[1,1,0,1,1,1,1,0,0,1,0,0,0,0,0,0,1,0,0,1],[0,0,1,1,1,1,0,0,1,0,0,1,0,1,1,1,0,0,0,0],[0,0,1,1,1,1,0,0,0,1,0,0,0,1,0,1,0,0,1,0],[1,0,0,1,0,0,0,1,1,0,1,0,1,0,0,1,0,0,1,1],[1,1,0,1,0,0,0,0,1,1,1,0,0,0,1,0,0,1,0,0],[0,1,1,0,0,0,0,1,1,0,0,0,1,1,0,1,1,0,1,0],[0,1,1,1,0,1,0,1,0,1,1,1,1,1,0,0,1,1,1,0],[1,0,1,0,0,0,1,0,0,1,0,1,1,0,0,0,0,1,1,1],[0,0,1,0,0,0,0,1,0,0,1,0,0,1,0,1,0,0,0,0],[1,1,1,1,0,1,0,0,1,0,1,0,0,0,0,0,0,0,0,0]],"displayWidth":172,"displayHeight":172,"spacing":100,"style":{"gridBorderColor":"#ffffff","gridBorderWidth":"3","dotColor":"#ffffff","dotLineWidth":"1"}},"pluginResponse":[{"startTime":21795.999999856576,"rt":2138.0000000353903,"response":[{"id":0,"name":"Left","answer":63,"prompt":"Left","lastChangedTime":23463.999999919906},{"id":1,"name":"Right","answer":"50","prompt":"Right","lastChangedTime":null}],"stimulusOffTime":901.0000000707805,"trial_type":"canvas-sliders-response","trial_index":12,"time_elapsed":23767,"internal_node_id":"0.0-7.0-0.1"},{"choiceTime":0,"choice":1,"totalTime":2000.9999999310821,"image":"http://localhost:8080/ExploringSocialMetacognition/assets/image/advisor1.png","adviceTime":2000.9999999310821,"trial_type":"jspsych-jas-present-advice-choice","trial_index":13,"time_elapsed":25768,"internal_node_id":"0.0-7.0-1.1"},{"startTime":25935.99999998696,"rt":2013.0000000353903,"response":[{"id":0,"name":"Left","answer":82,"prompt":"Left","lastChangedTime":27084.000000031665},{"id":1,"name":"Right","answer":"50","prompt":"Right","lastChangedTime":null}],"trial_type":"canvas-sliders-response","trial_index":14,"time_elapsed":27783,"internal_node_id":"0.0-7.0-2.1"}],"confidenceCategory":0,"advisorAgrees":true,"advice":{"filePath":"assets/audio/voices/2/think_left.wav","string":"I think it was on the LEFT","loaded":true,"loading":true,"data":null,"buffer":{},"side":0,"confidence":0}},{"block":1,"advisorId":1,"choice":[],"answer":[0,0],"confidence":[41,65],"whichSide":0,"practice":true,"feedback":true,"warnings":[],"stimulusDrawTime":[28851.999999955297],"stimulusOffTime":[901.0000000707805,null],"fixationDrawTime":[28351.999999955297],"id":6,"dotDifference":21,"grid":{"dotCountL":221,"dotCountR":179,"gridWidth":20,"gridHeight":20,"dotWidth":2,"dotHeight":2,"paddingX":6,"paddingY":6,"gridL":[[1,0,0,0,0,1,1,0,1,0,1,1,0,1,0,1,1,0,1,0],[0,1,1,1,0,1,1,0,1,1,0,0,1,0,0,0,0,0,0,1],[1,0,1,1,0,1,0,0,1,1,1,1,1,1,0,1,0,0,0,1],[1,0,0,0,1,1,1,0,0,0,0,1,0,0,0,1,1,1,1,1],[1,1,0,1,0,1,0,0,1,1,0,1,1,1,0,1,0,1,0,0],[0,1,1,0,1,1,0,0,0,0,1,1,1,1,1,0,0,0,1,1],[0,1,1,1,0,1,1,1,1,0,0,0,0,0,0,0,0,1,1,1],[1,1,1,0,1,1,1,0,1,1,1,0,0,1,1,0,1,1,0,1],[0,1,0,1,0,0,0,0,0,1,0,0,0,1,1,1,0,1,1,0],[1,1,1,1,1,1,1,0,1,1,0,0,0,1,1,1,1,0,0,1],[0,0,1,0,0,1,1,0,1,1,0,1,1,0,1,1,1,1,1,1],[0,0,1,1,0,1,1,1,1,1,1,1,0,0,0,0,1,1,1,0],[1,0,0,1,1,0,1,1,1,1,1,0,1,1,0,1,1,1,0,1],[0,0,1,1,0,1,0,0,0,0,0,1,1,1,0,0,0,0,1,0],[0,1,0,1,0,0,0,0,0,0,1,1,1,0,0,0,1,0,1,1],[0,0,1,1,1,1,1,1,0,0,1,1,0,1,1,1,1,0,1,1],[1,0,0,1,0,0,1,0,1,1,0,1,0,0,1,0,1,1,0,1],[1,1,1,1,0,1,1,1,0,1,1,1,1,0,1,0,0,0,0,1],[0,0,0,1,1,1,1,1,0,0,1,0,0,0,1,0,0,0,0,1],[1,1,1,0,0,1,1,0,1,1,0,1,1,0,1,0,1,0,1,1]],"gridR":[[0,0,1,0,1,0,1,0,0,0,0,0,1,0,1,0,0,0,1,1],[1,1,1,0,0,0,1,1,1,1,0,1,0,0,0,0,0,1,1,1],[0,0,0,1,1,1,0,1,1,0,0,0,0,0,0,0,1,1,0,0],[0,0,1,0,1,1,1,0,1,0,1,1,0,1,0,1,1,0,1,1],[1,0,1,0,1,0,1,0,1,1,0,1,1,1,1,0,0,1,1,0],[0,0,1,0,0,0,0,0,1,1,0,1,0,0,1,1,0,0,0,1],[1,0,1,0,1,1,1,1,0,0,1,0,0,1,0,0,0,0,1,1],[0,1,0,0,1,0,1,1,0,0,1,1,0,0,0,0,1,0,1,1],[1,1,1,0,0,1,0,1,0,0,0,1,0,0,0,0,0,0,0,1],[1,1,0,1,1,0,0,0,0,0,1,0,1,0,1,0,1,1,1,0],[1,0,0,0,0,1,1,0,0,0,0,1,1,0,1,1,0,0,0,0],[0,0,1,0,1,1,0,1,0,1,0,1,0,1,0,0,1,1,0,1],[0,1,1,1,1,1,0,0,0,0,0,1,1,1,0,0,0,0,1,1],[0,0,0,0,0,1,1,0,1,1,1,0,0,0,0,1,0,1,1,0],[1,1,0,0,0,0,0,0,1,0,0,1,1,0,1,0,1,1,1,0],[1,1,0,1,0,1,1,0,0,1,0,0,0,0,1,0,0,0,1,1],[0,0,1,0,1,1,0,0,1,0,0,0,1,1,0,0,1,0,1,1],[1,1,1,1,0,0,1,0,0,0,1,1,0,0,0,1,0,1,0,0],[1,0,0,0,0,1,1,0,0,1,0,1,0,0,0,1,0,0,1,1],[0,0,0,1,0,0,1,0,0,1,0,1,1,1,0,1,1,0,0,0]],"displayWidth":172,"displayHeight":172,"spacing":100,"style":{"gridBorderColor":"#ffffff","gridBorderWidth":"3","dotColor":"#ffffff","dotLineWidth":"1"}},"pluginResponse":[{"startTime":28150.99999983795,"rt":2570.0000000651926,"response":[{"id":0,"name":"Left","answer":41,"prompt":"Left","lastChangedTime":30138.999999966472},{"id":1,"name":"Right","answer":"50","prompt":"Right","lastChangedTime":null}],"stimulusOffTime":901.0000000707805,"trial_type":"canvas-sliders-response","trial_index":15,"time_elapsed":30554,"internal_node_id":"0.0-7.0-0.2"},{"choiceTime":0,"choice":1,"totalTime":2003.000000026077,"image":"http://localhost:8080/ExploringSocialMetacognition/assets/image/advisor1.png","adviceTime":2003.000000026077,"trial_type":"jspsych-jas-present-advice-choice","trial_index":16,"time_elapsed":32557,"internal_node_id":"0.0-7.0-1.2"},{"startTime":32724.9999998603,"rt":1320.0000000651926,"response":[{"id":0,"name":"Left","answer":65,"prompt":"Left","lastChangedTime":33451.9999998156},{"id":1,"name":"Right","answer":"50","prompt":"Right","lastChangedTime":null}],"trial_type":"canvas-sliders-response","trial_index":17,"time_elapsed":33879,"internal_node_id":"0.0-7.0-2.2"}],"confidenceCategory":0,"advisorAgrees":true,"advice":{"filePath":"assets/audio/voices/2/think_left.wav","string":"I think it was on the LEFT","loaded":true,"loading":true,"data":null,"buffer":{},"side":0,"confidence":0}},{"block":1,"advisorId":1,"choice":[],"answer":[0,0],"confidence":[45,28],"whichSide":0,"practice":true,"feedback":true,"warnings":[],"stimulusDrawTime":[34949.00000002235],"stimulusOffTime":[902.9999999329448,null],"fixationDrawTime":[34449.00000002235],"id":7,"dotDifference":18,"grid":{"dotCountL":218,"dotCountR":182,"gridWidth":20,"gridHeight":20,"dotWidth":2,"dotHeight":2,"paddingX":6,"paddingY":6,"gridL":[[1,1,0,1,0,1,1,1,1,0,1,0,1,1,1,1,1,1,1,1],[0,0,0,0,1,1,1,0,1,1,1,1,0,0,0,1,0,0,0,0],[1,0,1,1,0,1,0,0,0,0,1,1,1,0,0,0,1,1,0,1],[1,0,1,1,0,0,0,1,0,0,0,0,0,1,0,0,1,0,0,0],[1,1,1,0,1,1,1,0,1,1,1,1,1,1,1,0,1,1,0,1],[1,1,1,1,0,1,1,1,1,0,1,0,1,0,1,1,1,0,0,0],[1,1,1,0,0,1,0,1,0,1,1,0,1,1,1,0,0,0,1,0],[1,0,1,0,0,0,0,1,0,1,0,0,0,0,0,1,1,0,0,1],[0,1,1,1,1,1,0,1,0,1,0,1,1,0,0,0,1,1,1,1],[0,0,1,0,0,0,0,1,1,0,0,1,1,0,0,0,1,0,0,0],[1,1,0,0,1,1,1,0,0,1,0,0,0,0,0,1,0,0,0,1],[0,1,1,1,0,1,0,0,0,1,0,0,1,0,0,0,0,0,1,1],[0,1,0,1,0,1,1,1,0,1,0,0,1,0,1,1,1,0,1,1],[1,0,1,1,0,1,1,1,1,1,0,0,1,1,1,1,1,0,0,1],[1,1,0,0,1,1,1,1,0,0,1,1,0,0,0,0,0,1,1,0],[1,1,0,1,0,1,1,0,1,0,0,1,0,1,1,1,1,0,1,0],[1,1,1,1,0,1,1,1,1,0,0,1,1,1,0,1,1,0,1,1],[0,1,0,1,0,1,1,1,0,0,1,1,0,1,0,0,1,1,1,1],[0,1,1,1,0,0,0,1,0,1,0,1,0,0,0,1,0,1,0,0],[0,1,0,0,1,0,1,0,1,1,1,1,1,1,0,1,0,1,1,1]],"gridR":[[0,1,0,1,0,0,1,0,1,0,0,1,1,1,1,0,1,0,1,0],[1,0,0,1,0,0,0,0,0,0,0,0,0,0,1,0,0,1,1,0],[0,1,0,0,1,0,0,1,1,1,0,1,0,1,0,1,1,1,0,1],[1,1,1,1,1,0,0,0,1,0,1,1,1,1,1,0,0,0,0,1],[1,0,1,1,1,0,0,0,0,0,0,1,0,0,1,0,0,0,0,0],[1,0,1,0,0,0,0,1,0,0,1,1,0,0,0,1,0,0,0,0],[0,1,0,1,1,0,1,1,1,0,1,0,0,1,0,1,1,0,1,0],[1,0,0,1,0,1,1,0,1,1,0,0,0,0,1,0,1,1,0,0],[1,1,0,1,1,0,1,0,1,0,0,1,1,0,1,0,1,1,0,1],[1,1,0,0,0,0,1,0,0,0,0,1,0,1,1,1,1,1,0,0],[0,1,0,0,1,0,1,1,0,1,1,0,1,1,1,0,1,1,0,0],[1,1,0,0,1,0,0,0,1,1,0,1,0,1,1,0,0,1,1,0],[1,1,1,1,1,0,0,0,1,1,1,1,0,1,1,0,0,1,0,1],[1,0,0,0,0,0,1,1,0,0,1,1,1,0,1,1,1,1,0,0],[0,0,1,1,1,1,0,0,0,0,0,1,1,0,1,1,0,0,1,0],[1,0,0,0,1,0,0,1,1,0,0,1,0,0,0,1,0,0,0,0],[1,1,1,1,0,1,0,0,1,0,0,1,1,1,0,0,0,0,0,0],[0,1,1,1,1,0,1,0,0,0,0,1,0,1,0,1,0,0,1,0],[0,0,0,0,0,1,1,0,0,1,0,0,1,0,1,0,1,0,0,0],[1,0,1,0,0,0,1,0,1,1,0,1,0,0,0,0,0,1,1,0]],"displayWidth":172,"displayHeight":172,"spacing":100,"style":{"gridBorderColor":"#ffffff","gridBorderWidth":"3","dotColor":"#ffffff","dotLineWidth":"1"}},"pluginResponse":[{"startTime":34246.99999997392,"rt":2128.000000026077,"response":[{"id":0,"name":"Left","answer":45,"prompt":"Left","lastChangedTime":35870.99999981001},{"id":1,"name":"Right","answer":"50","prompt":"Right","lastChangedTime":null}],"stimulusOffTime":902.9999999329448,"trial_type":"canvas-sliders-response","trial_index":18,"time_elapsed":36208,"internal_node_id":"0.0-7.0-0.3"},{"choiceTime":0,"choice":1,"totalTime":2003.000000026077,"image":"http://localhost:8080/ExploringSocialMetacognition/assets/image/advisor1.png","adviceTime":2003.000000026077,"trial_type":"jspsych-jas-present-advice-choice","trial_index":19,"time_elapsed":38212,"internal_node_id":"0.0-7.0-1.3"},{"startTime":38379.99999988824,"rt":1195.0000000651926,"response":[{"id":0,"name":"Left","answer":28,"prompt":"Left","lastChangedTime":39064.99999994412},{"id":1,"name":"Right","answer":"50","prompt":"Right","lastChangedTime":null}],"trial_type":"canvas-sliders-response","trial_index":20,"time_elapsed":39409,"internal_node_id":"0.0-7.0-2.3"}],"confidenceCategory":0,"advisorAgrees":false,"advice":{"filePath":"assets/audio/voices/2/think_right.wav","string":"I think it was on the RIGHT","loaded":true,"loading":true,"data":null,"buffer":{},"side":1,"confidence":0}},{"type":1,"typeName":"force","block":2,"advisorId":1,"choice":[],"answer":[0,1],"confidence":[0,33],"whichSide":0,"practice":false,"feedback":false,"warnings":[],"stimulusDrawTime":[53260.00000000931],"stimulusOffTime":[900.0000001396984,null],"fixationDrawTime":[52760.00000000931],"id":8,"dotDifference":15,"grid":{"dotCountL":215,"dotCountR":185,"gridWidth":20,"gridHeight":20,"dotWidth":2,"dotHeight":2,"paddingX":6,"paddingY":6,"gridL":[[0,1,1,0,0,1,1,0,0,1,1,0,1,0,1,1,0,1,1,0],[0,0,0,0,1,0,1,0,1,0,0,1,1,1,0,0,1,1,1,1],[1,1,1,1,0,1,0,1,0,1,1,1,0,0,1,1,1,1,1,1],[0,0,1,1,0,1,0,0,0,0,0,0,0,1,1,0,1,1,0,1],[0,0,0,0,0,0,0,0,0,0,1,1,1,1,0,1,1,1,1,0],[1,0,1,0,1,1,1,0,1,0,1,1,1,0,0,1,0,0,0,1],[1,1,0,0,0,1,1,0,1,0,1,0,1,0,0,1,1,1,1,0],[0,1,1,0,1,0,0,1,1,0,0,1,0,1,0,0,1,1,1,0],[0,1,1,1,1,0,1,0,1,0,1,1,0,1,1,1,1,0,1,1],[1,0,1,0,1,1,1,1,1,1,1,0,0,0,1,0,1,1,1,0],[1,0,1,0,1,1,0,0,1,0,1,1,0,1,0,0,0,0,1,1],[1,1,1,1,0,0,1,0,1,0,1,1,1,1,0,0,0,1,0,1],[1,0,0,1,0,1,1,1,0,1,1,1,0,1,0,0,0,0,0,0],[0,1,0,1,0,0,1,0,0,0,1,0,0,1,1,1,0,0,1,1],[1,1,0,1,0,0,1,1,1,1,0,0,0,0,0,0,1,0,0,1],[1,1,0,1,0,1,0,0,0,1,1,1,0,1,1,1,0,1,1,0],[0,0,1,0,0,1,0,1,1,0,1,0,0,0,0,0,1,1,1,1],[0,1,1,1,1,1,0,0,1,1,0,1,0,1,1,1,1,1,1,0],[1,1,1,1,0,0,0,1,0,0,0,0,1,0,1,0,0,1,0,0],[0,0,1,1,1,1,0,1,1,0,1,1,1,1,1,0,0,0,1,0]],"gridR":[[0,0,1,1,0,0,0,1,1,0,0,1,1,0,1,0,1,1,0,0],[1,1,1,0,1,0,1,0,0,1,1,1,0,1,1,1,1,1,0,1],[1,0,1,1,0,0,0,1,1,1,0,0,1,0,0,1,0,0,1,0],[1,0,0,1,0,1,1,0,0,1,1,0,1,0,0,0,0,1,1,1],[1,0,1,1,1,1,0,0,0,1,0,0,0,1,0,1,1,1,1,0],[0,1,1,1,1,1,0,1,1,0,1,0,0,0,0,0,0,0,1,1],[0,0,0,1,0,1,0,0,1,1,0,0,0,1,1,1,0,0,0,0],[1,0,0,0,1,0,1,0,1,1,1,0,0,0,0,0,0,0,1,1],[1,1,0,0,1,1,0,1,0,0,1,0,0,1,0,0,0,0,0,1],[0,1,1,0,0,0,1,1,1,0,0,0,1,0,0,1,0,1,1,0],[0,0,0,0,1,0,0,1,1,1,0,0,1,1,1,0,1,1,1,0],[1,1,0,0,0,1,1,0,0,0,1,0,0,0,1,0,0,1,1,0],[1,0,0,0,0,0,0,1,0,0,0,1,0,0,1,0,0,1,0,1],[0,1,0,0,1,0,0,0,1,0,0,1,0,1,0,1,0,1,1,1],[0,0,0,0,1,0,0,0,0,1,0,1,0,0,0,1,1,0,0,1],[0,1,0,1,1,1,1,1,1,0,0,0,1,0,0,1,1,0,0,0],[0,1,1,1,0,1,0,0,1,1,0,0,0,1,0,0,1,0,1,0],[1,1,1,0,1,0,0,1,0,1,0,1,0,1,0,0,1,1,1,0],[0,1,1,1,0,1,1,1,1,1,0,1,1,0,1,0,0,0,1,1],[0,1,1,0,0,1,1,0,1,0,1,0,1,0,0,0,0,1,0,0]],"displayWidth":172,"displayHeight":172,"spacing":100,"style":{"gridBorderColor":"#ffffff","gridBorderWidth":"3","dotColor":"#ffffff","dotLineWidth":"1"}},"pluginResponse":[{"startTime":52559.99999982305,"rt":2273.0000000447035,"response":[{"id":0,"name":"Left","answer":0,"prompt":"Left","lastChangedTime":54356.99999984354},{"id":1,"name":"Right","answer":"50","prompt":"Right","lastChangedTime":null}],"stimulusOffTime":900.0000001396984,"trial_type":"canvas-sliders-response","trial_index":26,"time_elapsed":54667,"internal_node_id":"0.0-13.0-0.0"},{"choiceTime":0,"choice":1,"totalTime":2001.9999998621643,"image":"http://localhost:8080/ExploringSocialMetacognition/assets/image/advisor1.png","adviceTime":2001.9999998621643,"trial_type":"jspsych-jas-present-advice-choice","trial_index":27,"time_elapsed":56669,"internal_node_id":"0.0-13.0-1.0"},{"startTime":56838.999999919906,"rt":1250.9999999310821,"response":[{"id":0,"name":"Left","answer":50,"prompt":"Left","lastChangedTime":null},{"id":1,"name":"Right","answer":"33","prompt":"Right","lastChangedTime":57472.99999999814}],"trial_type":"canvas-sliders-response","trial_index":28,"time_elapsed":57923,"internal_node_id":"0.0-13.0-2.0"}],"confidenceCategory":0,"advisorAgrees":false,"advice":{"filePath":"assets/audio/voices/2/right_think.wav","string":"It was on the RIGHT, I think","loaded":true,"loading":true,"data":null,"buffer":{},"side":1,"confidence":0}},{"type":1,"typeName":"force","block":2,"advisorId":1,"choice":[],"answer":[1,1],"confidence":[58,76],"whichSide":1,"practice":false,"feedback":false,"warnings":[],"stimulusDrawTime":[58991.99999985285],"stimulusOffTime":[901.0000000707805,null],"fixationDrawTime":[58491.99999985285],"id":9,"dotDifference":12,"grid":{"dotCountL":188,"dotCountR":212,"gridWidth":20,"gridHeight":20,"dotWidth":2,"dotHeight":2,"paddingX":6,"paddingY":6,"gridL":[[1,0,1,0,0,0,0,1,1,1,0,0,0,1,0,1,0,1,1,0],[1,0,0,1,1,0,1,0,0,0,1,0,1,0,0,0,1,1,0,0],[0,0,0,1,0,1,1,1,0,0,1,0,1,1,0,1,1,1,1,1],[0,1,1,1,1,1,1,0,1,1,0,0,0,0,1,0,0,0,1,1],[0,0,1,1,1,0,0,1,0,1,1,0,0,0,1,1,0,0,1,0],[0,1,0,1,0,0,0,1,0,0,1,0,0,1,0,0,0,1,1,0],[0,1,0,0,1,1,0,0,0,0,0,1,0,0,1,1,1,0,0,0],[0,1,0,0,0,1,0,0,0,0,0,1,0,0,1,0,1,1,1,1],[0,0,0,1,0,1,1,0,0,0,0,0,0,0,1,1,0,0,1,0],[1,0,1,1,1,0,1,0,0,0,0,0,0,1,0,0,1,1,1,0],[1,0,1,1,0,1,0,1,0,0,0,0,1,0,0,0,0,0,1,1],[0,0,1,1,1,0,0,0,1,1,0,1,1,0,0,1,1,1,0,0],[0,1,1,1,0,0,1,1,1,0,0,1,0,1,1,1,0,1,1,0],[0,1,0,1,0,0,1,1,1,1,1,0,0,0,0,1,1,0,0,0],[1,1,0,1,0,1,1,1,1,0,1,1,0,0,1,0,0,1,0,1],[1,1,0,0,1,1,1,0,1,0,1,1,1,1,0,0,1,1,1,0],[0,0,0,1,0,0,0,1,1,0,0,1,1,0,0,1,0,1,0,0],[1,1,1,0,0,0,0,0,0,1,0,1,1,1,0,1,1,0,1,0],[1,0,1,0,0,1,1,1,0,1,1,1,1,1,0,0,0,0,1,0],[1,1,0,0,0,0,1,0,1,0,1,0,1,1,0,0,1,0,1,1]],"gridR":[[0,0,0,1,0,1,0,1,0,0,1,1,1,0,0,0,0,0,0,0],[0,1,0,1,0,0,0,0,1,0,0,1,1,0,1,1,1,1,0,1],[1,0,1,1,1,1,0,0,0,1,1,0,1,0,1,1,1,1,1,1],[0,1,1,1,1,1,0,0,1,0,0,0,1,0,1,1,1,1,0,1],[1,1,1,1,1,0,0,0,0,1,1,0,1,1,1,0,1,1,1,1],[1,0,1,1,1,1,0,0,0,1,1,0,1,0,1,1,1,0,1,0],[0,1,1,1,1,1,0,0,0,0,0,1,0,0,0,1,0,0,0,1],[0,1,0,1,0,0,1,1,1,1,0,0,0,1,1,1,0,0,0,0],[0,1,1,0,0,0,0,1,1,0,1,1,0,1,1,1,0,1,1,0],[0,0,1,0,1,1,0,0,0,0,1,0,1,1,1,0,0,0,0,0],[1,1,1,1,0,1,0,0,1,1,0,1,1,1,0,0,0,0,0,0],[0,0,1,1,1,1,0,1,0,1,1,1,0,0,1,1,1,1,1,0],[1,0,1,0,1,1,1,0,0,0,1,1,0,0,1,1,1,0,0,0],[1,0,1,1,1,1,1,0,0,0,0,1,1,1,0,1,1,1,0,1],[0,0,0,0,1,1,0,0,1,0,0,1,0,1,0,0,1,1,0,0],[0,0,0,1,1,1,1,0,0,1,1,0,1,1,0,1,1,0,1,1],[1,1,0,0,0,1,1,1,0,1,0,1,0,0,1,1,1,0,1,0],[0,1,0,0,1,1,0,1,0,0,1,1,1,1,0,0,0,1,0,1],[0,1,1,0,0,0,1,1,1,1,1,0,1,1,1,1,1,0,0,1],[1,0,0,0,1,1,1,1,1,0,0,1,0,0,1,0,0,0,1,1]],"displayWidth":172,"displayHeight":172,"spacing":100,"style":{"gridBorderColor":"#ffffff","gridBorderWidth":"3","dotColor":"#ffffff","dotLineWidth":"1"}},"pluginResponse":[{"startTime":58291.99999989942,"rt":2222.9999999981374,"response":[{"id":0,"name":"Left","answer":50,"prompt":"Left","lastChangedTime":null},{"id":1,"name":"Right","answer":"58","prompt":"Right","lastChangedTime":60017.99999992363}],"stimulusOffTime":901.0000000707805,"trial_type":"canvas-sliders-response","trial_index":29,"time_elapsed":60348,"internal_node_id":"0.0-13.0-0.1"},{"choiceTime":0,"choice":1,"totalTime":2003.000000026077,"image":"http://localhost:8080/ExploringSocialMetacognition/assets/image/advisor1.png","adviceTime":2003.000000026077,"trial_type":"jspsych-jas-present-advice-choice","trial_index":30,"time_elapsed":62351,"internal_node_id":"0.0-13.0-1.1"},{"startTime":62518.999999854714,"rt":1300.0000000465661,"response":[{"id":0,"name":"Left","answer":50,"prompt":"Left","lastChangedTime":null},{"id":1,"name":"Right","answer":"76","prompt":"Right","lastChangedTime":63314.00000001304}],"trial_type":"canvas-sliders-response","trial_index":31,"time_elapsed":63652,"internal_node_id":"0.0-13.0-2.1"}],"confidenceCategory":0,"advisorAgrees":true,"advice":{"filePath":"assets/audio/voices/2/think_right.wav","string":"I think it was on the RIGHT","loaded":true,"loading":true,"data":null,"buffer":{},"side":1,"confidence":0}},{"type":2,"typeName":"choice","block":2,"advisorId":3,"choice":[3,1],"answer":[1,1],"confidence":[33,50],"whichSide":1,"practice":false,"feedback":false,"warnings":[],"stimulusDrawTime":[64720.99999990314],"stimulusOffTime":[901.0000000707805,null],"fixationDrawTime":[64220.99999990314],"id":10,"dotDifference":9,"grid":{"dotCountL":191,"dotCountR":209,"gridWidth":20,"gridHeight":20,"dotWidth":2,"dotHeight":2,"paddingX":6,"paddingY":6,"gridL":[[1,0,1,0,1,0,1,1,0,1,0,0,0,1,1,0,0,1,0,0],[1,1,0,0,1,0,1,0,0,1,0,1,1,0,1,0,1,0,0,0],[0,1,1,1,1,0,0,1,1,1,1,1,0,0,0,0,0,1,1,0],[0,1,0,1,1,0,0,0,0,0,1,0,1,1,0,0,1,0,0,0],[1,0,1,1,1,0,1,1,1,0,1,1,1,0,0,0,0,0,1,0],[1,1,1,0,1,0,0,0,1,0,1,0,0,1,1,1,1,1,0,1],[1,0,0,0,1,0,1,1,0,1,0,0,1,1,1,1,1,0,1,1],[1,0,1,0,1,0,1,0,1,1,0,1,0,1,1,1,0,1,0,1],[1,0,1,0,0,0,1,1,0,0,1,1,0,0,0,0,1,1,0,0],[0,0,1,0,1,0,1,1,1,1,1,0,1,0,1,0,0,0,0,0],[0,0,0,0,0,0,0,1,0,0,0,1,1,0,0,1,1,0,1,1],[0,0,0,0,0,1,0,1,1,1,0,1,0,1,1,1,1,1,1,0],[1,1,0,1,1,0,1,0,1,1,1,0,0,1,0,0,1,1,0,1],[0,1,0,0,0,0,1,1,0,0,0,0,1,0,0,0,1,0,0,0],[0,0,1,0,0,0,1,0,0,0,1,0,1,1,1,0,1,0,1,1],[0,1,1,0,0,1,1,0,0,0,1,1,0,0,0,1,0,0,0,0],[1,1,1,0,1,0,0,1,0,0,1,1,1,1,1,0,1,0,1,0],[0,1,0,0,1,0,1,1,1,0,1,0,1,0,1,0,1,0,0,0],[0,0,0,1,1,0,1,0,1,0,1,1,1,1,0,0,1,1,0,0],[1,0,0,1,0,1,1,1,0,1,0,1,0,1,0,0,0,0,1,0]],"gridR":[[1,0,1,1,0,0,1,0,1,0,0,1,1,1,1,1,1,1,0,1],[1,0,0,1,1,1,0,1,1,1,0,1,0,0,0,1,0,0,0,1],[1,1,0,1,1,0,1,0,0,1,1,1,1,0,0,0,1,1,0,1],[0,1,1,1,1,1,0,0,0,1,0,1,0,0,0,1,1,0,0,0],[0,1,1,1,1,0,1,0,1,1,0,1,1,1,0,0,1,0,0,1],[0,1,0,1,0,0,0,0,0,0,1,1,1,0,0,0,1,0,1,1],[1,0,1,1,0,1,1,0,0,0,1,1,0,1,1,0,1,0,1,1],[0,0,0,0,1,0,1,1,0,1,0,0,1,1,0,0,1,1,0,1],[1,1,1,0,1,1,1,0,1,0,1,1,0,1,1,1,0,0,0,1],[0,1,0,0,0,1,1,1,1,0,1,1,1,0,1,0,0,1,1,1],[0,0,1,0,0,1,0,1,0,0,0,1,0,0,1,1,0,0,1,1],[0,0,1,1,0,1,1,0,1,0,1,1,1,0,0,1,1,1,0,0],[0,0,0,0,0,0,1,0,1,1,0,0,0,1,1,1,0,1,0,1],[1,0,1,1,0,1,1,1,1,0,0,0,0,0,1,1,1,1,0,0],[1,0,0,0,0,0,1,0,1,1,1,0,0,0,1,1,0,1,0,1],[0,0,1,1,1,0,0,0,1,1,1,0,1,1,0,0,0,1,1,1],[1,1,1,0,1,0,1,1,0,1,1,1,1,0,0,1,0,1,0,1],[0,1,0,0,1,1,1,0,1,0,0,0,1,0,0,1,0,1,1,1],[1,0,1,1,1,0,1,0,1,1,0,0,0,1,0,0,0,1,0,1],[1,0,1,0,0,1,0,0,1,0,1,1,1,0,0,0,1,0,0,0]],"displayWidth":172,"displayHeight":172,"spacing":100,"style":{"gridBorderColor":"#ffffff","gridBorderWidth":"3","dotColor":"#ffffff","dotLineWidth":"1"}},"pluginResponse":[{"startTime":64020.99999994971,"rt":2189.0000000130385,"response":[{"id":0,"name":"Left","answer":50,"prompt":"Left","lastChangedTime":null},{"id":1,"name":"Right","answer":"33","prompt":"Right","lastChangedTime":65697.99999985844}],"stimulusOffTime":901.0000000707805,"trial_type":"canvas-sliders-response","trial_index":32,"time_elapsed":66043,"internal_node_id":"0.0-13.0-0.2"},{"choiceTime":1070.0000000651926,"choice":3,"totalTime":3071.999999927357,"image":"http://localhost:8080/ExploringSocialMetacognition/assets/image/advisor2.png","adviceTime":2001.9999998621643,"trial_type":"jspsych-jas-present-advice-choice","trial_index":33,"time_elapsed":69115,"internal_node_id":"0.0-13.0-1.2"},{"startTime":69282.99999982119,"rt":1429.0000000037253,"response":[{"id":0,"name":"Left","answer":50,"prompt":"Left","lastChangedTime":null},{"id":1,"name":"Right","answer":"50","prompt":"Right","lastChangedTime":70035.99999984726}],"trial_type":"canvas-sliders-response","trial_index":34,"time_elapsed":70545,"internal_node_id":"0.0-13.0-2.2"}],"confidenceCategory":0,"advisorAgrees":true,"advice":{"filePath":"assets/audio/voices/1/right_think.wav","string":"It was on the RIGHT, I think","loaded":true,"loading":true,"data":null,"buffer":{},"side":1,"confidence":0}},{"type":2,"typeName":"choice","block":2,"advisorId":1,"choice":[3,1],"answer":[1,0],"confidence":[5,6],"whichSide":0,"practice":false,"feedback":false,"warnings":[],"stimulusDrawTime":[71614.99999999069],"stimulusOffTime":[901.0000000707805,null],"fixationDrawTime":[71114.99999999069],"id":11,"dotDifference":6,"grid":{"dotCountL":206,"dotCountR":194,"gridWidth":20,"gridHeight":20,"dotWidth":2,"dotHeight":2,"paddingX":6,"paddingY":6,"gridL":[[0,1,1,1,0,0,1,1,0,1,0,1,1,0,0,0,0,0,1,0],[0,1,0,1,0,0,1,1,1,0,0,0,0,0,0,1,1,1,0,0],[1,0,1,0,1,0,0,1,1,0,0,0,0,1,0,1,1,0,1,0],[0,0,1,0,1,1,0,0,0,0,1,1,1,1,1,1,0,1,1,0],[0,0,1,1,1,0,0,1,1,1,0,1,0,1,1,0,1,1,0,1],[0,1,1,1,1,1,0,0,1,1,0,1,1,1,1,0,1,1,0,1],[1,1,1,1,0,0,0,1,1,0,1,1,1,0,0,0,1,0,0,0],[1,0,0,0,0,1,0,0,1,0,1,0,1,0,0,0,1,1,1,1],[0,0,1,0,1,1,0,1,1,1,0,1,0,0,1,1,1,1,0,1],[0,1,1,0,1,1,1,1,0,0,1,1,1,1,0,1,0,1,0,1],[0,0,0,1,0,1,1,0,0,0,0,1,0,1,0,0,0,1,1,1],[1,1,0,0,0,0,0,0,1,1,1,1,1,0,0,0,0,1,1,1],[1,0,1,0,1,1,1,1,1,0,0,1,1,1,1,0,1,0,0,1],[1,1,1,0,0,1,0,0,0,1,0,1,1,0,0,1,0,0,0,0],[1,1,0,1,1,1,0,1,1,0,0,0,0,1,0,0,1,1,1,0],[0,0,1,0,1,0,0,1,0,1,0,0,1,1,1,0,0,1,1,1],[0,1,1,1,0,0,1,1,1,1,0,1,1,1,0,0,1,0,0,1],[0,0,1,1,0,1,1,0,1,0,0,1,0,1,1,1,1,1,0,0],[1,0,1,0,0,0,1,1,0,1,1,0,0,0,0,0,1,0,0,1],[0,1,0,0,1,1,1,0,0,0,1,0,0,0,1,0,0,1,1,0]],"gridR":[[1,1,0,0,0,0,1,0,0,1,0,0,1,1,1,1,1,0,1,1],[0,0,0,1,1,0,1,1,1,0,1,0,0,1,0,0,0,1,1,1],[1,1,0,1,0,1,1,0,1,1,1,1,0,1,1,1,0,0,0,0],[0,0,1,0,0,1,0,0,0,0,0,0,0,1,0,1,0,1,0,1],[0,1,0,0,1,0,1,0,1,1,1,0,0,0,0,0,1,1,1,1],[1,1,1,1,1,0,1,0,0,0,1,1,0,0,1,0,0,1,0,1],[1,0,1,0,0,0,1,1,0,1,1,1,0,1,0,1,1,0,1,0],[1,1,0,0,0,0,0,0,1,1,0,1,0,1,0,1,0,0,0,1],[0,1,1,0,1,1,1,1,1,0,0,0,1,0,0,0,1,1,0,1],[0,1,1,0,1,0,0,0,0,1,1,1,1,1,0,1,1,0,0,1],[0,1,1,1,1,0,0,0,0,0,0,1,1,1,0,1,1,1,0,0],[1,1,1,1,0,0,0,1,0,0,1,0,1,1,0,0,1,1,0,1],[0,1,0,0,1,1,0,1,1,1,0,0,1,0,0,0,1,1,1,0],[1,0,0,0,1,0,0,0,0,1,1,1,0,0,1,1,1,0,0,0],[0,0,1,0,1,0,0,0,0,0,0,1,0,0,1,0,1,0,1,1],[1,0,0,1,0,1,0,0,1,1,0,0,0,1,0,1,0,1,0,0],[1,0,1,0,1,1,0,0,1,1,0,0,0,0,0,1,0,0,0,0],[0,1,0,1,0,0,1,1,0,1,1,0,1,1,0,1,1,0,1,1],[1,1,0,1,0,1,0,1,1,0,0,0,1,0,1,1,0,1,0,1],[1,1,0,0,1,1,0,0,0,0,1,0,1,0,0,1,0,0,1,1]],"displayWidth":172,"displayHeight":172,"spacing":100,"style":{"gridBorderColor":"#ffffff","gridBorderWidth":"3","dotColor":"#ffffff","dotLineWidth":"1"}},"pluginResponse":[{"startTime":70913.99999987334,"rt":2488.0000001285225,"response":[{"id":0,"name":"Left","answer":50,"prompt":"Left","lastChangedTime":null},{"id":1,"name":"Right","answer":"5","prompt":"Right","lastChangedTime":72940.9999998752}],"stimulusOffTime":901.0000000707805,"trial_type":"canvas-sliders-response","trial_index":35,"time_elapsed":73235,"internal_node_id":"0.0-13.0-0.3"},{"choiceTime":1227.9999998863786,"choice":1,"totalTime":3229.9999999813735,"image":"http://localhost:8080/ExploringSocialMetacognition/assets/image/advisor1.png","adviceTime":2002.000000094995,"trial_type":"jspsych-jas-present-advice-choice","trial_index":36,"time_elapsed":76465,"internal_node_id":"0.0-13.0-1.3"},{"startTime":76632.99999991432,"rt":1161.0000000800937,"response":[{"id":0,"name":"Left","answer":6,"prompt":"Left","lastChangedTime":77341.0000000149},{"id":1,"name":"Right","answer":"50","prompt":"Right","lastChangedTime":null}],"trial_type":"canvas-sliders-response","trial_index":37,"time_elapsed":77627,"internal_node_id":"0.0-13.0-2.3"}],"confidenceCategory":0,"advisorAgrees":true,"advice":{"filePath":"assets/audio/voices/2/think_left.wav","string":"I think it was on the LEFT","loaded":true,"loading":true,"data":null,"buffer":{},"side":0,"confidence":0}},{"type":1,"typeName":"force","block":2,"advisorId":1,"choice":[],"answer":[1,1],"confidence":[0,19],"whichSide":0,"practice":false,"feedback":false,"warnings":[],"stimulusDrawTime":[78695.99999999627],"stimulusOffTime":[900.0000001396984,null],"fixationDrawTime":[78194.99999983236],"id":12,"dotDifference":9,"grid":{"dotCountL":209,"dotCountR":191,"gridWidth":20,"gridHeight":20,"dotWidth":2,"dotHeight":2,"paddingX":6,"paddingY":6,"gridL":[[1,0,1,1,1,0,1,1,0,0,1,1,1,0,0,1,1,0,0,0],[1,1,1,0,0,0,1,0,0,0,0,1,0,1,0,0,1,0,0,1],[1,1,0,0,0,0,0,1,1,1,0,0,1,0,1,0,1,1,0,0],[0,0,0,1,0,1,1,1,0,0,0,0,0,1,0,1,0,1,1,0],[1,0,0,0,0,1,1,1,0,0,1,0,0,0,0,1,1,1,1,0],[1,1,1,1,1,1,0,1,0,0,1,1,0,0,1,0,0,1,1,0],[1,0,1,1,1,1,0,0,1,0,1,1,0,1,0,1,1,0,1,1],[0,0,1,1,1,1,0,1,0,1,1,0,0,1,1,1,0,0,1,0],[0,0,0,1,0,0,0,0,1,0,1,1,1,0,0,1,0,0,0,1],[1,0,0,1,0,0,1,0,1,1,1,1,1,0,1,0,0,0,0,0],[1,0,0,0,1,1,0,1,0,1,0,1,0,0,0,1,0,1,1,1],[1,1,1,1,0,1,1,0,0,0,0,1,1,0,0,0,1,1,1,1],[1,1,0,1,1,1,1,1,0,1,1,1,0,0,0,1,0,1,1,0],[1,1,0,0,0,1,1,1,1,1,1,1,0,1,1,1,0,0,0,0],[1,0,1,1,0,1,1,0,1,1,0,1,1,1,0,0,1,0,1,1],[0,1,1,1,1,1,1,1,0,1,1,0,1,0,0,1,1,0,0,1],[0,0,1,1,1,0,1,1,1,1,1,1,0,0,0,0,0,0,1,0],[1,1,0,0,1,0,1,0,0,0,1,1,1,1,0,1,0,0,0,0],[1,0,0,0,1,1,0,1,0,0,1,0,1,1,0,1,0,0,0,1],[0,0,1,0,1,1,1,1,0,0,0,1,1,1,0,0,1,1,0,1]],"gridR":[[1,1,0,0,1,1,1,0,0,0,1,1,0,0,1,1,0,0,0,0],[1,0,1,0,0,0,0,1,0,0,1,0,0,1,1,1,1,0,1,0],[1,1,0,0,1,1,0,0,1,1,0,0,1,1,0,1,1,1,1,1],[0,0,1,1,0,1,1,0,1,1,1,0,0,1,1,0,1,1,0,1],[1,1,0,0,1,1,0,1,1,1,1,0,0,1,1,0,0,1,0,1],[1,0,1,1,1,1,0,0,0,1,1,0,1,1,1,1,1,1,0,1],[0,0,0,0,0,0,0,1,0,0,0,0,0,1,1,1,0,0,0,1],[0,1,0,1,1,0,1,0,0,1,0,1,0,1,1,0,1,1,0,1],[1,1,0,1,1,0,0,1,1,0,0,0,1,0,1,0,1,0,1,1],[0,1,0,1,1,1,0,0,0,1,0,1,1,0,1,0,0,1,0,1],[1,1,1,0,0,0,1,1,0,0,1,0,1,0,0,0,0,0,1,0],[1,0,0,1,1,0,1,1,0,1,0,1,1,0,1,0,0,0,1,0],[1,0,0,1,1,0,0,1,1,0,0,1,0,0,0,1,1,1,1,0],[0,0,1,1,0,1,0,0,1,1,0,0,0,1,0,0,1,1,1,1],[0,0,0,0,0,0,0,1,1,1,0,0,0,0,1,1,0,0,0,1],[1,1,1,0,0,0,1,1,0,0,0,1,1,1,1,0,1,0,0,0],[0,0,0,0,1,0,1,0,1,1,0,1,0,0,1,0,1,0,1,0],[0,1,0,1,1,1,0,0,0,0,0,0,0,0,0,1,0,0,1,1],[0,1,0,1,1,1,0,0,1,0,0,0,1,0,1,0,1,1,0,0],[0,1,0,1,1,0,1,0,0,1,1,0,0,0,0,1,0,0,0,0]],"displayWidth":172,"displayHeight":172,"spacing":100,"style":{"gridBorderColor":"#ffffff","gridBorderWidth":"3","dotColor":"#ffffff","dotLineWidth":"1"}},"pluginResponse":[{"startTime":77994.99999987893,"rt":2924.000000115484,"response":[{"id":0,"name":"Left","answer":50,"prompt":"Left","lastChangedTime":null},{"id":1,"name":"Right","answer":"0","prompt":"Right","lastChangedTime":80447.99999985844}],"stimulusOffTime":900.0000001396984,"trial_type":"canvas-sliders-response","trial_index":38,"time_elapsed":80752,"internal_node_id":"0.0-13.0-0.4"},{"choiceTime":0,"choice":1,"totalTime":2002.000000094995,"image":"http://localhost:8080/ExploringSocialMetacognition/assets/image/advisor1.png","adviceTime":2002.000000094995,"trial_type":"jspsych-jas-present-advice-choice","trial_index":39,"time_elapsed":82754,"internal_node_id":"0.0-13.0-1.4"},{"startTime":82922.99999995157,"rt":1168.999999994412,"response":[{"id":0,"name":"Left","answer":50,"prompt":"Left","lastChangedTime":null},{"id":1,"name":"Right","answer":"19","prompt":"Right","lastChangedTime":83597.99999999814}],"trial_type":"canvas-sliders-response","trial_index":40,"time_elapsed":83925,"internal_node_id":"0.0-13.0-2.4"}],"confidenceCategory":0,"advisorAgrees":false,"advice":{"filePath":"assets/audio/voices/2/think_right.wav","string":"I think it was on the RIGHT","loaded":true,"loading":true,"data":null,"buffer":{},"side":1,"confidence":0}},{"type":2,"typeName":"choice","block":2,"advisorId":3,"choice":[3,1],"answer":[1,1],"confidence":[9,50],"whichSide":1,"practice":false,"feedback":false,"warnings":[],"stimulusDrawTime":[84993.00000001676],"stimulusOffTime":[900.0000001396984,null],"fixationDrawTime":[84493.99999994785],"id":13,"dotDifference":12,"grid":{"dotCountL":188,"dotCountR":212,"gridWidth":20,"gridHeight":20,"dotWidth":2,"dotHeight":2,"paddingX":6,"paddingY":6,"gridL":[[0,0,0,0,0,1,1,0,0,0,0,0,1,1,0,1,0,1,1,1],[0,0,0,0,0,0,0,1,0,0,1,0,1,0,1,1,1,1,0,1],[0,0,1,1,0,1,0,1,0,1,0,0,0,0,1,1,0,1,0,1],[0,0,0,1,0,1,1,0,0,0,1,1,1,1,1,0,0,0,0,1],[0,0,0,1,1,1,0,1,0,0,0,1,0,1,1,1,0,1,1,0],[1,1,1,1,0,1,1,1,1,0,1,1,1,0,0,0,0,0,0,1],[0,1,0,0,0,1,1,1,0,0,1,0,1,0,0,1,1,1,1,0],[0,1,0,1,0,1,1,1,1,0,0,0,1,0,0,0,1,0,0,0],[0,0,1,0,1,1,1,0,0,1,0,0,1,0,0,0,0,1,0,1],[0,1,1,0,0,1,0,1,1,1,0,1,0,1,1,1,1,0,1,0],[1,1,1,1,0,0,1,1,0,1,0,1,1,0,0,0,1,0,0,0],[0,1,1,0,1,0,0,1,1,1,1,0,1,0,1,0,0,0,1,0],[0,0,0,0,1,1,1,0,0,1,0,0,0,0,1,1,1,1,0,0],[0,0,0,1,1,0,1,0,1,1,0,1,1,0,0,1,1,0,1,0],[1,0,0,0,1,0,0,1,0,0,1,1,0,1,0,1,0,1,0,0],[1,0,0,0,1,1,1,0,1,0,0,0,1,0,0,0,1,1,1,1],[0,0,1,0,1,1,1,0,1,0,1,1,1,0,0,0,0,0,1,0],[0,1,0,1,1,0,0,0,0,0,1,1,0,1,1,0,1,1,0,0],[1,0,0,1,1,0,0,1,1,1,1,1,0,0,0,0,1,0,0,1],[1,1,1,0,0,1,1,1,0,0,1,1,1,0,0,0,0,0,1,0]],"gridR":[[0,0,1,1,1,1,1,1,1,1,1,1,1,0,0,0,0,1,0,1],[1,1,0,0,0,0,1,0,1,1,0,1,1,1,0,1,0,1,1,1],[0,1,0,1,0,1,1,1,1,1,1,1,0,1,0,1,0,0,0,1],[1,0,1,0,1,1,0,1,0,1,0,1,1,1,0,1,1,0,1,0],[0,1,1,1,0,1,0,1,1,1,1,1,1,1,0,1,0,1,1,0],[0,1,1,0,0,0,1,1,0,1,1,0,0,1,1,0,1,1,1,1],[1,0,1,1,0,0,0,1,0,1,1,0,1,1,1,1,0,1,0,1],[0,0,1,0,0,0,0,0,0,0,1,0,0,0,1,0,1,1,1,0],[1,1,0,0,1,1,0,0,1,0,1,0,1,1,0,0,0,0,0,1],[0,0,1,0,1,1,1,1,0,0,1,0,1,1,1,0,1,1,0,0],[1,0,0,1,0,1,1,0,1,0,0,1,0,1,0,0,0,0,1,0],[0,0,0,0,1,1,1,0,0,1,1,1,1,0,0,0,1,0,1,0],[0,1,0,1,1,1,0,0,1,0,0,0,0,1,0,0,1,0,0,0],[1,0,0,0,1,0,1,0,1,1,1,1,1,0,0,0,1,0,1,0],[0,1,1,0,1,1,0,1,1,1,1,0,1,0,1,0,1,1,0,1],[0,1,1,1,1,0,1,0,0,0,0,0,1,1,1,0,0,1,0,0],[1,1,1,1,1,0,0,0,1,1,1,1,0,1,0,1,1,0,1,1],[0,0,1,1,1,0,0,1,0,1,0,0,0,1,0,0,1,1,1,1],[0,1,1,1,0,1,0,0,0,0,1,0,0,1,0,1,1,0,0,1],[0,1,1,0,1,0,1,1,0,0,1,0,0,0,0,1,0,1,1,1]],"displayWidth":172,"displayHeight":172,"spacing":100,"style":{"gridBorderColor":"#ffffff","gridBorderWidth":"3","dotColor":"#ffffff","dotLineWidth":"1"}},"pluginResponse":[{"startTime":84292.9999998305,"rt":2219.9999999720603,"response":[{"id":0,"name":"Left","answer":50,"prompt":"Left","lastChangedTime":null},{"id":1,"name":"Right","answer":"9","prompt":"Right","lastChangedTime":86051.99999990873}],"stimulusOffTime":900.0000001396984,"trial_type":"canvas-sliders-response","trial_index":41,"time_elapsed":86346,"internal_node_id":"0.0-13.0-0.5"},{"choiceTime":1019.0000000875443,"choice":3,"totalTime":3021.000000182539,"image":"http://localhost:8080/ExploringSocialMetacognition/assets/image/advisor2.png","adviceTime":2002.000000094995,"trial_type":"jspsych-jas-present-advice-choice","trial_index":42,"time_elapsed":89367,"internal_node_id":"0.0-13.0-1.5"},{"startTime":89534.99999991618,"rt":1257.9999999143183,"response":[{"id":0,"name":"Left","answer":50,"prompt":"Left","lastChangedTime":null},{"id":1,"name":"Right","answer":"50","prompt":"Right","lastChangedTime":90149.99999990687}],"trial_type":"canvas-sliders-response","trial_index":43,"time_elapsed":90626,"internal_node_id":"0.0-13.0-2.5"}],"confidenceCategory":0,"advisorAgrees":true,"advice":{"filePath":"assets/audio/voices/1/right_think.wav","string":"It was on the RIGHT, I think","loaded":true,"loading":true,"data":null,"buffer":{},"side":1,"confidence":0}},{"type":2,"typeName":"choice","block":2,"advisorId":1,"choice":[1,3],"answer":[1,1],"confidence":[24,40],"whichSide":1,"practice":false,"feedback":false,"warnings":[],"stimulusDrawTime":[91696.99999992736],"stimulusOffTime":[901.0000000707805,null],"fixationDrawTime":[91195.99999999627],"id":14,"dotDifference":12,"grid":{"dotCountL":188,"dotCountR":212,"gridWidth":20,"gridHeight":20,"dotWidth":2,"dotHeight":2,"paddingX":6,"paddingY":6,"gridL":[[0,0,0,1,1,1,1,0,0,1,0,0,0,0,0,1,0,0,1,0],[1,0,1,1,0,0,0,1,0,1,1,1,0,0,1,0,0,1,1,0],[1,1,1,0,0,0,0,1,0,0,1,1,1,1,0,1,0,1,0,1],[0,1,0,0,0,0,0,0,0,1,1,1,0,0,0,0,0,1,0,0],[1,1,0,0,0,0,1,0,0,0,1,0,0,0,1,0,0,0,1,0],[0,0,0,0,1,0,0,0,0,1,1,1,0,1,1,1,1,0,0,1],[0,0,0,1,0,1,1,1,1,0,1,0,1,0,0,0,1,0,0,0],[1,0,0,0,1,0,1,0,0,1,1,1,1,0,0,1,1,1,0,1],[1,0,0,0,1,0,0,1,1,0,0,1,1,1,0,1,0,1,0,1],[0,0,0,1,1,0,0,0,0,1,0,0,0,1,1,0,1,0,1,0],[0,0,0,0,0,0,1,1,0,1,0,0,0,0,0,1,1,1,1,0],[0,0,1,1,0,0,1,0,1,1,1,0,1,1,0,0,0,1,1,1],[0,0,1,0,1,0,0,1,1,1,0,1,1,1,0,1,0,1,1,1],[1,0,1,1,1,0,1,0,0,1,1,1,0,1,1,0,1,0,0,0],[1,0,1,1,1,0,1,0,0,1,0,1,1,1,0,0,0,1,0,0],[1,1,0,1,1,1,0,1,1,0,0,1,1,1,0,1,0,0,0,1],[1,1,0,1,1,1,0,1,1,0,0,0,0,1,1,1,1,1,0,1],[1,1,0,0,0,0,0,0,0,1,0,0,0,0,0,0,1,1,1,0],[1,0,1,0,1,0,1,1,0,1,1,1,1,1,0,1,1,0,0,1],[0,0,1,1,1,0,0,0,1,0,1,1,1,1,0,0,1,0,0,0]],"gridR":[[1,1,1,0,0,0,1,1,1,0,0,1,0,1,1,0,0,1,0,1],[1,0,1,1,1,1,0,1,0,0,0,0,0,0,1,1,1,1,0,1],[1,0,0,0,1,1,1,0,1,0,1,0,1,0,0,0,1,1,0,1],[0,0,0,0,1,1,1,1,1,1,1,1,1,1,1,1,1,0,1,1],[0,0,1,1,0,1,1,0,1,0,1,1,1,1,0,1,0,0,0,0],[1,0,0,1,0,0,0,1,1,1,1,0,0,1,1,0,0,0,1,1],[0,1,1,0,1,0,1,1,0,0,1,0,1,1,1,1,1,1,0,0],[1,0,0,0,0,0,0,1,0,0,0,1,1,1,0,1,1,1,0,0],[1,0,0,0,0,0,0,0,0,1,1,0,0,0,1,0,1,0,1,1],[1,1,0,1,1,1,0,1,1,0,0,0,1,1,1,1,1,0,1,1],[0,0,1,1,1,1,1,1,1,0,1,1,0,1,1,1,0,1,1,1],[0,0,1,0,1,1,0,1,1,0,1,0,0,1,1,1,1,0,0,0],[0,0,0,1,0,0,1,0,0,1,1,0,1,0,0,1,1,0,0,1],[0,1,1,0,0,0,0,0,1,0,0,1,0,1,1,0,1,0,1,0],[0,1,0,0,0,0,0,0,0,1,1,1,0,0,0,0,1,0,0,0],[1,0,1,0,0,1,1,0,1,1,0,1,1,0,0,1,0,0,1,1],[0,0,1,1,1,1,1,0,0,1,0,0,1,0,0,1,1,0,1,1],[1,1,1,0,0,1,1,0,0,1,0,1,1,1,0,1,0,0,0,0],[1,1,1,1,0,1,0,0,0,1,1,0,1,0,1,1,1,0,0,1],[1,1,1,1,0,0,1,0,1,0,1,1,0,1,1,1,1,1,1,0]],"displayWidth":172,"displayHeight":172,"spacing":100,"style":{"gridBorderColor":"#ffffff","gridBorderWidth":"3","dotColor":"#ffffff","dotLineWidth":"1"}},"pluginResponse":[{"startTime":90995.99999981001,"rt":2183.000000193715,"response":[{"id":0,"name":"Left","answer":50,"prompt":"Left","lastChangedTime":null},{"id":1,"name":"Right","answer":"24","prompt":"Right","lastChangedTime":92719.99999997206}],"stimulusOffTime":901.0000000707805,"trial_type":"canvas-sliders-response","trial_index":44,"time_elapsed":93012,"internal_node_id":"0.0-13.0-0.6"},{"choiceTime":1143.9999998547137,"choice":1,"totalTime":3145.9999999497086,"image":"http://localhost:8080/ExploringSocialMetacognition/assets/image/advisor1.png","adviceTime":2002.000000094995,"trial_type":"jspsych-jas-present-advice-choice","trial_index":45,"time_elapsed":96159,"internal_node_id":"0.0-13.0-1.6"},{"startTime":96326.9999998156,"rt":1133.000000147149,"response":[{"id":0,"name":"Left","answer":50,"prompt":"Left","lastChangedTime":null},{"id":1,"name":"Right","answer":"40","prompt":"Right","lastChangedTime":96981.99999984354}],"trial_type":"canvas-sliders-response","trial_index":46,"time_elapsed":97294,"internal_node_id":"0.0-13.0-2.6"}],"confidenceCategory":0,"advisorAgrees":true,"advice":{"filePath":"assets/audio/voices/2/think_right.wav","string":"I think it was on the RIGHT","loaded":true,"loading":true,"data":null,"buffer":{},"side":1,"confidence":0}},{"type":2,"typeName":"choice","block":2,"advisorId":1,"choice":[3,1],"answer":[1,1],"confidence":[9,25],"whichSide":1,"practice":false,"feedback":false,"warnings":[],"stimulusDrawTime":[98361.99999996461],"stimulusOffTime":[899.9999999068677,null],"fixationDrawTime":[97862.99999989569],"id":15,"dotDifference":9,"grid":{"dotCountL":191,"dotCountR":209,"gridWidth":20,"gridHeight":20,"dotWidth":2,"dotHeight":2,"paddingX":6,"paddingY":6,"gridL":[[1,0,0,0,0,1,1,0,0,0,1,1,0,0,1,1,0,1,1,0],[0,1,1,0,0,1,0,1,0,0,1,0,1,0,1,0,0,0,1,1],[0,1,1,0,0,1,0,0,1,1,1,1,0,1,0,0,0,1,1,1],[1,1,0,1,1,0,1,1,1,1,0,0,0,1,1,0,1,1,0,1],[0,0,0,0,0,0,1,1,0,0,1,1,1,0,0,1,1,0,0,0],[0,0,0,0,0,1,1,0,0,0,1,0,1,1,1,0,0,0,1,1],[0,0,1,0,0,0,0,1,1,0,0,1,1,1,1,0,0,1,0,1],[0,1,0,0,1,1,0,1,0,1,1,1,0,0,0,0,1,1,0,0],[0,1,0,1,1,1,0,1,0,1,0,1,1,1,1,1,0,0,0,1],[1,0,1,0,0,0,0,1,1,0,1,0,0,0,1,0,1,1,0,0],[0,0,0,0,0,0,0,0,0,0,1,0,0,1,1,1,1,1,0,1],[0,1,0,0,0,1,0,1,1,0,0,0,1,1,0,1,1,0,1,0],[0,1,0,1,0,1,1,0,1,1,0,0,1,1,0,1,1,0,0,1],[1,0,1,1,1,0,1,1,0,1,0,0,1,0,0,0,0,1,1,1],[1,0,1,1,1,1,1,0,0,0,1,0,1,1,0,1,0,1,0,1],[1,0,0,0,0,0,0,1,0,0,1,1,1,0,1,0,1,1,1,1],[1,0,0,1,1,0,1,1,0,0,1,1,0,1,0,0,0,0,0,0],[0,0,1,0,0,0,1,0,0,1,1,0,0,1,1,0,1,0,1,1],[0,0,1,0,1,0,0,0,1,0,0,0,0,0,1,1,1,0,1,1],[1,1,0,1,1,1,0,1,0,1,0,1,1,1,0,0,1,0,0,0]],"gridR":[[0,0,1,1,0,1,0,1,1,1,1,0,1,0,0,0,1,0,1,1],[0,1,0,0,1,0,1,1,1,1,1,0,0,0,1,1,0,1,0,0],[1,1,1,1,1,0,1,0,1,1,1,1,1,0,0,0,0,0,1,1],[0,0,1,1,0,1,0,1,0,1,0,0,0,0,1,1,1,1,1,0],[1,1,1,0,1,1,1,1,0,0,1,0,0,1,1,0,1,0,1,1],[0,0,0,0,0,1,0,0,0,0,1,1,0,1,1,0,1,1,0,0],[1,0,0,0,1,0,0,0,0,0,0,0,0,0,1,0,1,1,1,1],[1,1,0,1,1,0,1,0,1,1,0,0,1,0,1,1,0,1,0,0],[0,1,0,0,1,0,0,0,0,0,0,1,0,0,1,0,1,1,1,0],[0,0,0,1,1,1,1,0,1,0,1,1,0,0,0,1,0,1,0,1],[1,0,0,1,0,0,1,1,1,0,0,0,0,1,1,1,0,1,0,1],[0,1,0,0,0,0,0,0,0,1,0,1,1,0,1,0,1,0,0,1],[1,1,0,1,0,1,1,1,1,1,1,1,0,1,1,0,0,1,0,0],[1,1,1,1,0,1,0,0,1,0,0,1,1,1,1,1,1,0,1,0],[1,1,0,1,0,1,1,1,0,0,0,1,1,1,0,1,0,1,0,1],[1,1,1,0,1,0,1,1,0,0,1,0,0,1,0,1,1,1,0,0],[0,0,0,0,1,1,0,0,1,1,1,0,0,1,0,0,0,0,1,1],[1,1,0,1,1,1,1,0,0,1,1,1,1,1,1,0,0,0,0,1],[1,1,1,0,1,1,0,1,1,0,0,1,0,1,0,0,1,0,1,1],[0,1,0,0,1,0,1,1,1,1,0,0,0,1,0,1,0,1,1,1]],"displayWidth":172,"displayHeight":172,"spacing":100,"style":{"gridBorderColor":"#ffffff","gridBorderWidth":"3","dotColor":"#ffffff","dotLineWidth":"1"}},"pluginResponse":[{"startTime":97662.00000001118,"rt":2285.999999847263,"response":[{"id":0,"name":"Left","answer":50,"prompt":"Left","lastChangedTime":null},{"id":1,"name":"Right","answer":"9","prompt":"Right","lastChangedTime":99543.99999999441}],"stimulusOffTime":899.9999999068677,"trial_type":"canvas-sliders-response","trial_index":47,"time_elapsed":99787,"internal_node_id":"0.0-13.0-0.7"},{"choiceTime":1044.9999999254942,"choice":1,"totalTime":3047.999999951571,"image":"http://localhost:8080/ExploringSocialMetacognition/assets/image/advisor1.png","adviceTime":2003.000000026077,"trial_type":"jspsych-jas-present-advice-choice","trial_index":48,"time_elapsed":102835,"internal_node_id":"0.0-13.0-1.7"},{"startTime":103003.00000002608,"rt":1094.9999999720603,"response":[{"id":0,"name":"Left","answer":50,"prompt":"Left","lastChangedTime":null},{"id":1,"name":"Right","answer":"25","prompt":"Right","lastChangedTime":103638.99999996647}],"trial_type":"canvas-sliders-response","trial_index":49,"time_elapsed":103932,"internal_node_id":"0.0-13.0-2.7"}],"confidenceCategory":0,"advisorAgrees":true,"advice":{"filePath":"assets/audio/voices/2/think_right.wav","string":"I think it was on the RIGHT","loaded":true,"loading":true,"data":null,"buffer":{},"side":1,"confidence":0}},{"type":1,"typeName":"force","block":2,"advisorId":3,"choice":[],"answer":[0,0],"confidence":[74,97],"whichSide":0,"practice":false,"feedback":false,"warnings":[],"stimulusDrawTime":[105000],"stimulusOffTime":[900.0000001396984,null],"fixationDrawTime":[104500],"id":16,"dotDifference":6,"grid":{"dotCountL":206,"dotCountR":194,"gridWidth":20,"gridHeight":20,"dotWidth":2,"dotHeight":2,"paddingX":6,"paddingY":6,"gridL":[[1,0,0,1,0,0,1,1,0,0,1,1,1,1,0,0,1,0,0,1],[0,0,1,0,1,1,0,1,1,0,1,0,0,0,1,0,1,0,1,1],[0,0,0,1,0,1,1,0,1,0,1,0,1,0,0,0,0,0,0,1],[1,1,0,1,0,1,1,0,1,1,1,1,1,0,1,0,1,0,1,0],[0,0,0,0,1,1,1,0,0,1,1,0,1,1,1,1,1,1,1,0],[1,1,0,1,0,1,0,1,1,1,1,0,0,1,0,1,1,0,1,1],[0,0,0,0,1,1,1,1,0,1,0,0,1,0,0,0,1,0,0,0],[1,1,1,1,0,1,0,1,1,1,0,1,0,1,1,1,1,1,1,0],[1,0,1,1,0,0,1,0,0,1,1,0,0,1,0,1,0,1,1,1],[0,1,1,0,1,0,0,1,1,0,1,1,0,1,1,0,0,1,0,0],[1,1,1,1,0,1,1,0,0,1,1,1,0,1,1,0,0,0,0,0],[1,1,0,0,1,1,0,0,1,0,1,0,0,1,0,1,0,1,1,0],[1,0,0,0,1,0,0,0,0,0,1,0,1,0,1,0,0,0,0,1],[0,1,0,1,1,0,0,0,1,0,1,1,1,1,0,1,0,0,0,0],[1,1,0,1,0,1,1,1,0,0,0,1,0,1,1,1,0,0,0,1],[1,0,1,1,1,1,0,1,1,1,0,1,0,0,1,0,1,1,0,1],[1,1,0,1,0,1,1,0,1,0,1,1,1,0,0,0,1,0,0,0],[0,1,1,0,0,0,0,0,1,0,1,0,1,0,1,0,0,0,1,0],[0,1,0,0,0,0,1,0,0,1,1,1,1,1,0,1,1,0,1,0],[1,1,1,0,0,1,1,0,0,0,1,1,1,0,1,0,0,0,1,1]],"gridR":[[1,1,1,0,0,1,0,0,0,1,1,0,1,0,1,1,0,1,0,1],[0,0,1,0,0,0,1,1,1,0,1,0,1,0,0,0,0,1,1,0],[0,1,1,1,0,1,0,0,1,0,0,0,1,0,1,0,0,0,1,1],[0,0,1,1,0,0,0,0,1,0,1,1,0,0,1,0,1,0,1,1],[0,1,0,0,1,1,1,1,1,0,1,1,1,1,0,1,1,1,1,1],[0,1,0,1,1,1,0,1,1,1,1,1,1,0,1,1,1,0,1,1],[0,1,1,1,0,1,1,1,0,1,0,1,1,1,1,1,1,0,1,1],[1,0,0,0,1,0,0,0,0,0,0,0,1,0,1,0,0,0,1,1],[1,1,0,0,1,0,0,1,0,1,1,1,0,0,1,0,0,1,0,0],[0,1,0,0,1,0,0,0,1,0,0,0,1,1,1,1,0,1,1,1],[0,1,0,1,0,1,0,0,0,0,1,0,1,0,0,1,0,0,1,0],[1,0,0,1,0,0,1,0,0,0,0,1,1,0,1,1,1,0,0,1],[1,1,1,1,1,1,1,1,0,0,0,0,0,1,0,1,0,1,0,1],[0,0,1,1,0,0,1,0,1,0,0,0,1,0,1,0,0,1,0,0],[1,0,0,1,1,0,0,1,0,1,0,0,0,1,0,0,1,0,1,0],[0,0,0,0,1,0,0,1,0,1,1,0,1,0,1,1,1,1,0,1],[0,1,1,0,1,0,0,1,0,0,0,1,0,1,0,0,1,1,0,1],[0,0,0,0,1,1,1,1,1,0,1,0,0,1,0,1,0,1,0,1],[0,0,0,0,0,1,0,1,0,1,1,1,1,0,0,1,1,0,1,0],[0,1,0,0,1,0,1,0,0,1,0,0,0,1,1,0,0,0,0,0]],"displayWidth":172,"displayHeight":172,"spacing":100,"style":{"gridBorderColor":"#ffffff","gridBorderWidth":"3","dotColor":"#ffffff","dotLineWidth":"1"}},"pluginResponse":[{"startTime":104299.99999981374,"rt":2170.000000158325,"response":[{"id":0,"name":"Left","answer":74,"prompt":"Left","lastChangedTime":105993.99999994785},{"id":1,"name":"Right","answer":"50","prompt":"Right","lastChangedTime":null}],"stimulusOffTime":900.0000001396984,"trial_type":"canvas-sliders-response","trial_index":50,"time_elapsed":106303,"internal_node_id":"0.0-13.0-0.8"},{"choiceTime":0,"choice":3,"totalTime":2003.000000026077,"image":"http://localhost:8080/ExploringSocialMetacognition/assets/image/advisor2.png","adviceTime":2003.000000026077,"trial_type":"jspsych-jas-present-advice-choice","trial_index":51,"time_elapsed":108306,"internal_node_id":"0.0-13.0-1.8"},{"startTime":108473.99999992922,"rt":1237.9999998956919,"response":[{"id":0,"name":"Left","answer":97,"prompt":"Left","lastChangedTime":109190.9999998752},{"id":1,"name":"Right","answer":"50","prompt":"Right","lastChangedTime":null}],"trial_type":"canvas-sliders-response","trial_index":52,"time_elapsed":109545,"internal_node_id":"0.0-13.0-2.8"}],"confidenceCategory":2,"advisorAgrees":true,"advice":{"filePath":"assets/audio/voices/1/think_left.wav","string":"I think it was on the LEFT","loaded":true,"loading":true,"data":null,"buffer":{},"side":0,"confidence":0}},{"type":1,"typeName":"force","block":2,"advisorId":3,"choice":[],"answer":[0,0],"confidence":[68,50],"whichSide":1,"practice":false,"feedback":false,"warnings":[],"stimulusDrawTime":[110612.99999989569],"stimulusOffTime":[901.0000000707805,null],"fixationDrawTime":[110112.99999989569],"id":17,"dotDifference":3,"grid":{"dotCountL":197,"dotCountR":203,"gridWidth":20,"gridHeight":20,"dotWidth":2,"dotHeight":2,"paddingX":6,"paddingY":6,"gridL":[[0,1,1,1,0,0,1,1,1,1,0,1,0,0,1,0,0,0,0,0],[1,1,1,1,0,1,0,0,1,0,0,0,0,1,0,1,1,0,0,0],[0,0,1,0,0,0,1,0,0,1,0,0,1,0,1,0,0,0,0,1],[1,0,1,0,1,1,1,0,1,1,0,0,1,0,1,0,1,0,1,1],[1,1,0,0,1,0,1,1,0,0,1,0,0,0,1,0,0,0,0,0],[0,0,1,1,1,0,1,0,0,0,1,1,0,0,0,0,1,0,0,1],[0,1,0,0,0,0,1,0,1,0,0,0,0,0,1,0,1,1,1,0],[1,0,1,1,0,0,0,1,0,1,1,0,1,1,0,0,0,1,0,0],[0,0,1,0,0,0,0,1,0,1,1,0,0,1,1,1,1,0,1,0],[0,1,1,1,1,1,0,0,1,1,1,0,1,1,1,0,1,1,0,0],[1,1,0,0,0,0,1,1,0,0,1,0,1,1,1,1,0,0,1,1],[1,0,0,0,1,0,0,1,0,1,1,0,1,1,0,1,0,0,0,1],[1,0,1,1,1,0,0,0,1,0,0,1,0,1,0,1,1,1,0,1],[1,1,0,0,1,0,1,1,1,1,0,0,1,0,0,1,0,1,1,1],[1,0,0,0,1,0,1,1,1,0,0,1,1,1,1,1,0,0,0,1],[1,1,0,1,0,1,0,1,1,0,0,1,1,1,1,1,0,0,1,0],[0,0,0,0,1,1,1,0,0,0,0,0,1,0,1,1,0,0,0,0],[1,0,0,0,1,1,1,1,1,1,1,0,1,1,0,1,0,0,0,0],[0,0,1,1,0,1,0,1,1,1,1,1,1,1,1,1,1,1,1,1],[0,1,1,1,0,0,0,1,1,0,0,1,0,0,0,1,1,0,0,1]],"gridR":[[0,1,0,1,1,1,0,0,1,1,1,0,1,1,1,0,0,1,0,1],[0,1,0,1,0,1,1,0,0,0,0,1,0,0,0,1,1,1,1,0],[0,1,1,0,0,1,1,1,1,0,1,0,1,1,1,0,1,0,0,0],[1,1,0,0,0,0,0,0,1,0,1,0,0,0,0,1,1,0,0,0],[1,1,1,1,0,0,1,0,1,1,1,0,1,1,0,0,0,1,1,0],[0,0,0,1,0,0,1,1,0,1,1,0,1,0,0,1,1,0,1,1],[0,1,1,0,1,0,1,1,0,1,0,1,1,0,1,0,0,0,0,1],[1,0,1,0,0,0,0,0,0,1,1,0,1,0,0,0,1,0,1,0],[1,0,1,1,1,1,1,1,1,0,0,0,0,1,1,1,0,0,0,1],[0,1,1,1,1,1,1,1,1,1,0,1,1,0,1,0,0,0,0,0],[0,0,0,1,1,0,0,1,1,0,1,1,0,0,0,1,1,1,1,1],[0,0,0,1,1,0,0,0,0,1,0,0,1,1,1,0,1,0,1,1],[0,1,1,0,0,1,1,1,0,0,0,0,0,0,1,1,1,0,0,1],[1,1,0,1,0,1,1,1,0,1,1,0,0,0,1,1,1,1,1,1],[1,1,1,1,1,1,1,1,0,1,1,0,1,0,0,1,1,0,0,0],[1,0,1,1,0,0,0,0,1,0,0,1,0,1,1,1,1,1,0,0],[0,1,0,0,1,0,1,0,1,1,1,0,0,0,1,0,0,0,0,0],[0,1,0,1,0,1,1,1,1,1,0,1,1,1,0,1,0,0,1,1],[0,0,1,0,0,0,0,1,0,0,0,1,0,1,1,0,1,0,1,1],[1,0,0,1,0,0,0,1,0,0,0,1,0,1,0,0,1,1,0,1]],"displayWidth":172,"displayHeight":172,"spacing":100,"style":{"gridBorderColor":"#ffffff","gridBorderWidth":"3","dotColor":"#ffffff","dotLineWidth":"1"}},"pluginResponse":[{"startTime":109912.99999994226,"rt":2166.999999899417,"response":[{"id":0,"name":"Left","answer":68,"prompt":"Left","lastChangedTime":111630.99999981932},{"id":1,"name":"Right","answer":"50","prompt":"Right","lastChangedTime":null}],"stimulusOffTime":901.0000000707805,"trial_type":"canvas-sliders-response","trial_index":53,"time_elapsed":111914,"internal_node_id":"0.0-13.0-0.9"},{"choiceTime":0,"choice":3,"totalTime":2001.9999998621643,"image":"http://localhost:8080/ExploringSocialMetacognition/assets/image/advisor2.png","adviceTime":2001.9999998621643,"trial_type":"jspsych-jas-present-advice-choice","trial_index":54,"time_elapsed":113916,"internal_node_id":"0.0-13.0-1.9"},{"startTime":114084.00000003166,"rt":1194.999999832362,"response":[{"id":0,"name":"Left","answer":50,"prompt":"Left","lastChangedTime":114841.0000000149},{"id":1,"name":"Right","answer":"50","prompt":"Right","lastChangedTime":null}],"trial_type":"canvas-sliders-response","trial_index":55,"time_elapsed":115113,"internal_node_id":"0.0-13.0-2.9"}],"confidenceCategory":1,"advisorAgrees":true,"advice":{"filePath":"assets/audio/voices/1/think_right.wav","string":"I think it was on the RIGHT","loaded":true,"loading":true,"data":null,"buffer":{},"side":1,"confidence":0}},{"type":2,"typeName":"choice","block":2,"advisorId":3,"choice":[1,3],"answer":[1,1],"confidence":[10,29],"whichSide":1,"practice":false,"feedback":false,"warnings":[],"stimulusDrawTime":[116180.99999986589],"stimulusOffTime":[899.9999999068677,null],"fixationDrawTime":[115682.0000000298],"id":18,"dotDifference":6,"grid":{"dotCountL":194,"dotCountR":206,"gridWidth":20,"gridHeight":20,"dotWidth":2,"dotHeight":2,"paddingX":6,"paddingY":6,"gridL":[[1,0,0,1,1,1,0,1,0,0,1,0,0,0,0,1,0,1,1,1],[0,1,1,1,0,1,1,0,0,1,0,1,0,0,0,1,0,1,1,1],[0,1,1,0,1,0,0,0,0,1,1,0,1,0,1,0,0,0,0,1],[0,1,1,1,0,1,0,0,0,0,0,0,0,1,0,1,1,0,1,1],[1,0,0,1,0,0,0,1,0,1,1,1,0,0,1,1,0,1,1,1],[0,0,0,1,0,1,1,1,1,1,1,1,0,0,1,1,1,0,1,1],[0,0,0,0,0,1,1,0,1,0,1,0,0,1,0,1,0,0,0,1],[0,0,0,0,0,0,0,1,0,1,0,1,0,0,1,0,0,0,1,1],[0,1,0,0,0,0,1,1,0,0,0,1,1,1,1,0,0,0,0,1],[0,1,1,1,1,0,0,0,0,1,0,1,0,0,1,0,1,1,0,0],[0,0,0,0,1,0,1,1,1,0,1,0,1,1,0,1,0,1,1,1],[1,1,0,0,0,1,0,0,1,1,1,0,0,1,0,0,0,1,0,1],[0,0,0,1,1,1,1,0,0,0,1,1,1,1,1,1,1,1,0,0],[1,0,0,0,0,0,0,0,1,1,1,0,1,0,1,1,1,0,1,0],[1,1,1,1,1,1,0,1,1,0,1,0,1,1,1,1,1,1,1,1],[1,1,0,1,1,0,0,0,0,0,0,0,0,1,0,0,1,1,0,1],[0,0,1,1,1,1,0,0,0,1,1,0,1,0,1,1,0,1,1,0],[1,1,0,0,0,1,0,0,1,0,0,0,0,0,0,0,0,0,1,0],[0,1,1,1,0,0,0,1,1,1,1,1,0,0,0,0,0,0,1,0],[0,1,0,1,1,1,1,0,0,1,1,0,1,0,1,0,1,0,1,0]],"gridR":[[1,1,1,1,1,1,0,0,0,0,0,0,0,1,1,0,0,0,0,1],[0,0,0,1,1,1,0,1,1,1,1,1,0,0,1,0,0,0,0,1],[1,0,0,1,0,0,0,1,1,0,1,0,0,1,1,1,1,0,0,0],[1,0,0,1,1,0,0,0,0,1,0,0,1,1,0,0,0,0,1,0],[1,1,0,0,0,1,0,1,1,1,1,1,0,0,0,1,1,1,1,0],[0,1,1,0,1,1,1,1,1,0,1,1,1,0,1,0,0,0,1,1],[0,0,0,0,0,1,1,0,1,1,0,0,1,1,0,1,1,1,0,1],[0,0,0,0,1,1,1,0,1,1,1,0,0,0,0,0,1,1,1,1],[1,1,0,0,0,0,1,1,1,0,0,0,0,1,1,0,0,0,1,0],[0,1,0,1,0,1,0,0,1,1,1,0,0,0,1,1,0,1,1,0],[1,1,0,1,0,1,0,0,1,1,1,0,0,1,0,0,0,1,1,1],[0,1,0,1,0,1,1,1,0,0,1,1,1,0,0,0,1,0,1,1],[1,1,0,1,1,0,0,0,1,0,0,0,1,0,1,0,1,1,1,1],[0,1,0,0,0,1,0,1,0,1,1,1,1,1,0,1,1,1,1,1],[1,1,0,1,1,0,1,1,0,0,0,1,1,0,1,0,0,0,1,0],[1,1,0,1,0,1,1,1,1,0,0,0,0,1,0,1,0,1,1,0],[0,1,0,1,0,0,0,1,1,0,1,1,1,0,1,1,1,0,1,1],[0,0,1,0,0,0,1,1,0,1,1,0,1,1,0,1,0,0,1,1],[1,0,1,0,1,0,1,1,0,0,0,1,0,0,1,0,0,0,1,0],[1,0,1,1,0,0,0,0,1,1,0,1,1,1,1,1,0,0,1,0]],"displayWidth":172,"displayHeight":172,"spacing":100,"style":{"gridBorderColor":"#ffffff","gridBorderWidth":"3","dotColor":"#ffffff","dotLineWidth":"1"}},"pluginResponse":[{"startTime":115480.99999991246,"rt":2127.000000094995,"response":[{"id":0,"name":"Left","answer":50,"prompt":"Left","lastChangedTime":null},{"id":1,"name":"Right","answer":"10","prompt":"Right","lastChangedTime":117176.99999990873}],"stimulusOffTime":899.9999999068677,"trial_type":"canvas-sliders-response","trial_index":56,"time_elapsed":117441,"internal_node_id":"0.0-13.0-0.10"},{"choiceTime":900.9999998379499,"choice":3,"totalTime":2903.999999864027,"image":"http://localhost:8080/ExploringSocialMetacognition/assets/image/advisor2.png","adviceTime":2003.000000026077,"trial_type":"jspsych-jas-present-advice-choice","trial_index":57,"time_elapsed":120345,"internal_node_id":"0.0-13.0-1.10"},{"startTime":120512.99999980256,"rt":1102.0000001881272,"response":[{"id":0,"name":"Left","answer":50,"prompt":"Left","lastChangedTime":null},{"id":1,"name":"Right","answer":"29","prompt":"Right","lastChangedTime":121162.99999994226}],"trial_type":"canvas-sliders-response","trial_index":58,"time_elapsed":121449,"internal_node_id":"0.0-13.0-2.10"}],"confidenceCategory":0,"advisorAgrees":true,"advice":{"filePath":"assets/audio/voices/1/think_right.wav","string":"I think it was on the RIGHT","loaded":true,"loading":true,"data":null,"buffer":{},"side":1,"confidence":0}},{"type":1,"typeName":"force","block":2,"advisorId":1,"choice":[],"answer":[0,0],"confidence":[59,78],"whichSide":0,"practice":false,"feedback":false,"warnings":[],"stimulusDrawTime":[122517.99999992363],"stimulusOffTime":[901.0000000707805,null],"fixationDrawTime":[122016.99999999255],"id":19,"dotDifference":6,"grid":{"dotCountL":206,"dotCountR":194,"gridWidth":20,"gridHeight":20,"dotWidth":2,"dotHeight":2,"paddingX":6,"paddingY":6,"gridL":[[0,1,1,0,0,1,1,0,0,1,1,0,1,1,0,1,1,0,1,0],[0,0,0,1,1,0,0,1,1,0,1,0,1,1,1,1,1,0,0,1],[1,0,0,0,0,1,1,0,1,1,0,0,1,0,1,0,1,1,1,1],[1,1,0,0,1,0,0,1,0,1,0,0,1,0,1,1,0,1,1,1],[1,1,0,0,1,1,0,1,1,0,1,0,0,0,1,0,0,1,0,0],[1,0,0,0,0,1,1,0,0,1,0,0,1,1,1,1,1,1,1,0],[0,1,1,0,0,1,0,0,0,1,1,0,0,1,1,0,0,1,0,1],[1,0,0,0,0,1,1,1,1,0,1,0,0,1,0,0,1,0,1,1],[1,0,0,0,1,0,1,0,1,0,1,1,1,1,1,1,1,0,1,1],[0,0,0,1,0,0,0,1,0,0,0,0,0,0,0,0,0,1,0,1],[1,1,1,1,1,1,1,0,1,0,0,1,0,1,1,0,0,1,0,1],[1,1,1,1,1,0,1,0,1,0,1,1,1,0,0,0,0,1,1,1],[0,1,0,1,0,0,1,0,0,0,0,1,1,0,0,0,1,0,0,1],[1,0,1,1,1,1,1,1,0,1,1,1,0,0,0,0,1,0,0,1],[1,1,0,0,0,1,1,1,1,0,1,0,0,1,1,0,0,0,0,0],[0,0,1,0,1,1,1,0,1,0,1,0,1,1,0,1,1,0,0,0],[1,1,1,1,1,0,0,0,1,1,1,0,1,0,1,1,0,1,1,0],[1,1,0,1,1,0,0,1,1,0,0,0,0,0,0,1,1,0,1,1],[0,0,1,1,0,0,0,0,1,1,1,0,0,0,0,0,1,1,1,0],[1,0,0,1,0,1,0,1,1,0,0,1,1,1,0,0,1,1,0,1]],"gridR":[[1,1,0,0,1,0,1,0,1,0,0,0,0,0,0,0,0,1,0,1],[0,1,1,0,0,0,1,1,1,1,1,1,1,0,1,1,1,0,0,0],[0,1,1,1,0,1,0,0,0,0,0,0,0,1,1,0,0,1,1,0],[0,1,0,1,1,0,0,0,0,0,1,1,0,0,0,0,1,1,1,1],[0,0,1,1,1,1,0,1,0,1,1,1,1,1,1,1,1,1,1,0],[0,1,0,0,1,0,1,1,1,1,1,0,0,1,1,1,0,1,1,1],[1,0,0,1,1,1,1,1,0,0,0,0,0,1,1,0,1,0,0,1],[0,0,1,0,0,1,0,1,1,0,0,0,0,0,0,1,1,1,0,1],[1,0,1,0,0,0,0,0,0,1,0,0,0,0,1,1,0,1,1,0],[1,0,0,0,0,0,0,1,1,1,1,1,0,1,0,0,0,0,0,0],[0,0,0,1,1,1,0,1,0,0,0,0,1,0,1,0,1,0,1,1],[0,0,0,0,1,1,0,0,1,0,1,1,1,0,0,0,1,0,0,0],[1,0,0,0,1,0,1,1,1,0,0,0,0,1,1,0,0,1,0,0],[0,1,1,1,0,1,0,1,1,0,1,1,0,0,0,1,0,1,0,1],[0,1,1,1,1,1,1,1,1,0,1,1,1,1,1,1,1,0,0,1],[1,0,0,0,0,0,1,1,0,1,0,1,1,0,1,0,0,0,1,1],[0,1,0,0,0,1,1,0,1,0,0,1,0,1,0,0,1,1,0,1],[1,0,1,1,0,1,1,0,1,1,0,1,0,0,0,1,1,0,1,0],[1,0,1,0,0,0,0,0,1,1,1,1,0,0,0,0,0,1,1,0],[0,1,1,1,0,1,1,1,0,0,0,1,0,1,0,0,0,1,0,1]],"displayWidth":172,"displayHeight":172,"spacing":100,"style":{"gridBorderColor":"#ffffff","gridBorderWidth":"3","dotColor":"#ffffff","dotLineWidth":"1"}},"pluginResponse":[{"startTime":121816.99999980628,"rt":2363.0000001285225,"response":[{"id":0,"name":"Left","answer":59,"prompt":"Left","lastChangedTime":123476.00000002421},{"id":1,"name":"Right","answer":"50","prompt":"Right","lastChangedTime":null}],"stimulusOffTime":901.0000000707805,"trial_type":"canvas-sliders-response","trial_index":59,"time_elapsed":124014,"internal_node_id":"0.0-13.0-0.11"},{"choiceTime":0,"choice":1,"totalTime":2002.000000094995,"image":"http://localhost:8080/ExploringSocialMetacognition/assets/image/advisor1.png","adviceTime":2002.000000094995,"trial_type":"jspsych-jas-present-advice-choice","trial_index":60,"time_elapsed":126016,"internal_node_id":"0.0-13.0-1.11"},{"startTime":126183.99999989197,"rt":959.000000031665,"response":[{"id":0,"name":"Left","answer":78,"prompt":"Left","lastChangedTime":126712.99999998882},{"id":1,"name":"Right","answer":"50","prompt":"Right","lastChangedTime":null}],"trial_type":"canvas-sliders-response","trial_index":61,"time_elapsed":126977,"internal_node_id":"0.0-13.0-2.11"}],"confidenceCategory":1,"advisorAgrees":true,"advice":{"filePath":"assets/audio/voices/2/think_left.wav","string":"I think it was on the LEFT","loaded":true,"loading":true,"data":null,"buffer":{},"side":0,"confidence":0}},{"type":2,"typeName":"choice","block":3,"advisorId":3,"choice":[3,1],"answer":[0,0],"confidence":[26,42],"whichSide":0,"practice":false,"feedback":false,"warnings":["Difficulty at maximum!"],"stimulusDrawTime":[128983.00000000745],"stimulusOffTime":[901.0000000707805,null],"fixationDrawTime":[128480.99999991246],"id":20,"dotDifference":3,"grid":{"dotCountL":203,"dotCountR":197,"gridWidth":20,"gridHeight":20,"dotWidth":2,"dotHeight":2,"paddingX":6,"paddingY":6,"gridL":[[0,0,0,1,0,0,1,0,1,0,1,0,0,1,0,0,1,1,1,1],[0,1,0,0,1,1,1,1,0,0,1,0,0,1,1,0,1,1,1,0],[1,0,0,1,0,0,1,0,1,0,1,0,1,1,0,1,1,1,0,1],[1,1,0,0,1,1,1,0,0,1,0,0,1,1,0,1,0,0,1,1],[1,1,1,1,0,1,0,1,0,1,0,0,1,1,1,0,1,0,1,1],[1,1,0,1,1,1,0,0,1,0,0,0,0,1,0,0,0,1,0,0],[1,0,0,0,1,0,0,1,0,0,1,1,0,1,1,0,0,1,0,1],[0,1,0,0,1,1,1,0,1,1,0,0,0,1,0,1,1,1,0,0],[0,1,0,1,0,1,1,0,0,0,0,1,1,1,0,1,0,1,1,1],[1,1,1,1,0,0,1,0,1,1,1,0,1,1,1,0,0,0,0,1],[1,1,0,1,1,0,1,1,0,1,1,1,0,1,0,1,0,1,0,1],[0,0,1,0,1,0,1,1,0,1,0,1,1,1,1,1,0,1,0,0],[1,0,0,0,0,0,1,0,1,0,1,1,1,0,0,0,1,0,1,1],[1,1,0,1,0,1,0,0,0,0,1,0,1,1,0,0,0,0,1,0],[0,1,0,1,0,0,0,0,1,1,1,0,0,0,0,0,0,1,1,0],[0,0,0,0,0,1,0,1,0,0,0,0,1,1,0,1,1,1,0,0],[0,1,1,0,1,1,0,1,1,0,1,1,0,0,0,1,1,0,1,1],[1,0,1,1,0,1,1,1,1,0,0,1,1,0,1,1,0,0,0,0],[0,1,1,0,0,1,1,1,0,0,1,1,0,1,0,0,0,1,0,1],[0,1,1,0,0,1,1,1,1,1,1,1,0,0,1,0,0,0,0,0]],"gridR":[[1,0,1,0,1,0,0,0,1,1,0,1,1,1,1,0,1,0,0,1],[0,0,1,0,1,0,1,0,1,1,0,1,1,1,0,0,1,1,1,0],[1,0,1,0,1,0,0,1,0,1,1,1,1,0,0,1,1,1,0,1],[0,1,1,1,1,0,1,0,1,0,0,0,1,1,1,0,0,1,0,1],[0,0,1,0,1,1,1,1,1,1,1,0,1,1,0,1,1,0,0,0],[1,1,1,0,1,1,0,1,0,1,1,0,0,1,1,1,0,1,0,0],[0,0,0,0,1,0,0,0,0,0,1,0,0,0,0,1,0,1,0,1],[0,0,0,0,0,1,1,1,0,1,0,1,1,1,1,0,1,1,0,0],[1,1,1,1,0,1,1,1,0,0,0,1,0,1,0,1,0,1,1,1],[0,1,0,1,1,0,1,0,0,1,0,1,0,1,0,1,0,1,1,1],[1,1,0,1,1,0,0,1,1,0,0,1,0,1,0,0,1,0,0,1],[0,0,1,0,0,1,0,0,0,0,1,1,0,0,0,1,0,0,0,1],[0,1,1,0,1,1,0,0,0,0,0,1,1,1,0,0,0,0,1,1],[0,0,0,1,1,1,1,1,0,1,1,0,0,1,0,1,0,1,0,0],[0,1,0,0,1,0,0,1,1,0,1,0,0,0,0,1,0,1,1,0],[1,0,1,0,0,0,1,0,1,1,1,1,0,1,1,1,0,1,0,1],[0,1,0,1,1,1,0,0,0,0,1,0,0,0,1,0,1,0,0,1],[1,0,1,0,0,0,1,0,0,0,1,0,0,0,0,1,1,1,1,1],[1,1,1,0,1,0,1,1,0,0,0,0,1,0,1,0,0,0,1,0],[0,0,0,0,1,1,1,0,0,1,1,0,0,0,0,0,1,0,1,1]],"displayWidth":172,"displayHeight":172,"spacing":100,"style":{"gridBorderColor":"#ffffff","gridBorderWidth":"3","dotColor":"#ffffff","dotLineWidth":"1"}},"pluginResponse":[{"startTime":128280.99999995902,"rt":2047.000000020489,"response":[{"id":0,"name":"Left","answer":26,"prompt":"Left","lastChangedTime":129887.99999980256},{"id":1,"name":"Right","answer":"50","prompt":"Right","lastChangedTime":null}],"stimulusOffTime":901.0000000707805,"trial_type":"canvas-sliders-response","trial_index":63,"time_elapsed":130163,"internal_node_id":"0.0-15.0-0.0"},{"choiceTime":972.9999999981374,"choice":3,"totalTime":2975.0000000931323,"image":"http://localhost:8080/ExploringSocialMetacognition/assets/image/advisor2.png","adviceTime":2002.000000094995,"trial_type":"jspsych-jas-present-advice-choice","trial_index":64,"time_elapsed":133138,"internal_node_id":"0.0-15.0-1.0"},{"startTime":133304.9999999348,"rt":979.9999999813735,"response":[{"id":0,"name":"Left","answer":42,"prompt":"Left","lastChangedTime":133868.99999994785},{"id":1,"name":"Right","answer":"50","prompt":"Right","lastChangedTime":null}],"trial_type":"canvas-sliders-response","trial_index":65,"time_elapsed":134118,"internal_node_id":"0.0-15.0-2.0"}],"confidenceCategory":0,"advisorAgrees":true,"advice":{"filePath":"assets/audio/voices/1/left_think.wav","string":"It was on the LEFT, I think","loaded":true,"loading":true,"data":null,"buffer":{},"side":0,"confidence":0}},{"type":1,"typeName":"force","block":3,"advisorId":1,"choice":[],"answer":[0,0],"confidence":[70,91],"whichSide":1,"practice":false,"feedback":false,"warnings":[],"stimulusDrawTime":[135186.99999991804],"stimulusOffTime":[899.9999999068677,null],"fixationDrawTime":[134686.99999991804],"id":21,"dotDifference":1,"grid":{"dotCountL":199,"dotCountR":201,"gridWidth":20,"gridHeight":20,"dotWidth":2,"dotHeight":2,"paddingX":6,"paddingY":6,"gridL":[[0,0,0,0,1,1,1,0,1,1,0,0,0,1,0,1,1,1,0,1],[0,0,1,1,0,1,0,1,1,0,0,0,0,1,0,0,0,1,0,1],[0,1,0,1,1,1,1,1,0,0,1,1,0,1,1,0,1,0,1,0],[1,1,0,0,0,0,1,0,1,1,1,0,0,0,0,0,1,1,0,0],[0,1,0,1,0,1,1,1,0,1,1,0,0,1,1,0,0,0,1,0],[0,0,0,1,1,1,1,0,0,0,0,1,1,0,0,0,0,0,0,1],[0,0,0,1,1,1,1,1,0,0,0,1,0,0,1,1,0,1,1,0],[0,0,0,0,0,0,0,1,1,1,1,1,1,0,0,0,1,1,1,1],[0,0,0,0,0,1,1,1,0,0,1,0,0,1,0,1,0,1,1,0],[1,1,0,0,0,1,1,0,0,1,0,1,0,1,0,1,0,1,1,0],[0,0,0,1,0,0,1,1,1,1,0,0,1,1,0,0,1,0,1,1],[1,0,0,0,0,1,1,1,1,0,1,1,1,0,1,0,0,0,1,0],[0,0,1,0,1,0,0,0,0,1,0,1,0,1,1,0,1,0,0,1],[0,1,1,1,1,1,1,1,1,1,0,1,1,1,0,0,1,1,1,1],[1,1,1,0,0,0,0,1,1,0,1,1,1,0,1,1,1,1,1,0],[1,1,0,1,0,0,0,0,1,0,1,1,0,1,0,0,1,1,1,1],[0,0,1,0,0,1,0,0,1,1,1,1,1,1,0,1,1,0,0,0],[1,0,1,1,0,1,1,0,0,0,1,0,0,0,0,1,0,0,1,0],[1,1,0,1,0,0,1,0,0,0,1,1,0,1,0,1,1,0,0,0],[1,0,1,0,0,1,1,1,1,0,0,0,1,0,1,1,1,1,0,0]],"gridR":[[1,1,1,1,0,0,0,1,1,0,1,0,1,1,1,0,0,1,0,0],[1,0,1,1,0,0,0,1,0,0,0,0,1,0,1,0,1,1,0,0],[1,1,1,0,1,1,1,0,1,1,0,0,0,1,1,0,1,0,1,1],[0,1,0,0,1,1,1,1,1,0,1,1,0,1,1,0,1,1,1,1],[1,1,1,0,1,0,1,0,1,1,1,0,1,1,1,0,0,0,1,1],[1,1,0,0,0,0,1,0,1,1,1,0,0,1,1,1,1,0,0,1],[1,0,1,0,1,0,0,1,1,1,0,0,0,0,1,1,0,0,0,0],[0,0,1,0,1,0,0,0,1,0,1,0,0,0,1,1,1,1,1,1],[1,1,0,1,0,0,1,0,0,0,0,0,1,0,1,1,0,1,0,1],[1,1,0,1,0,1,0,0,1,1,0,1,0,1,0,1,0,0,0,0],[0,0,0,0,1,1,1,1,1,1,0,1,1,0,0,0,0,0,0,0],[0,1,1,1,1,0,1,1,0,1,0,0,0,1,0,1,0,1,1,1],[0,0,0,0,0,1,1,1,0,1,0,1,0,1,1,1,0,0,1,1],[1,0,0,1,1,0,1,0,0,0,1,0,0,1,0,1,0,1,1,1],[1,0,0,1,0,0,0,0,1,0,0,1,0,0,0,0,0,1,0,1],[1,1,0,1,1,0,0,0,0,0,0,1,1,1,1,1,0,1,1,1],[1,0,0,0,1,0,1,0,0,0,0,0,0,0,0,1,1,1,0,1],[0,0,1,1,0,1,1,1,0,1,0,0,0,0,1,0,0,1,0,1],[0,1,1,1,1,0,0,0,0,1,1,0,1,0,0,1,1,1,0,1],[1,0,1,0,1,0,0,1,1,0,1,0,0,1,1,0,1,1,0,0]],"displayWidth":172,"displayHeight":172,"spacing":100,"style":{"gridBorderColor":"#ffffff","gridBorderWidth":"3","dotColor":"#ffffff","dotLineWidth":"1"}},"pluginResponse":[{"startTime":134486.9999999646,"rt":2295.9999998565763,"response":[{"id":0,"name":"Left","answer":70,"prompt":"Left","lastChangedTime":136233.99999993853},{"id":1,"name":"Right","answer":"50","prompt":"Right","lastChangedTime":null}],"stimulusOffTime":899.9999999068677,"trial_type":"canvas-sliders-response","trial_index":66,"time_elapsed":136616,"internal_node_id":"0.0-15.0-0.1"},{"choiceTime":0,"choice":1,"totalTime":2003.000000026077,"image":"http://localhost:8080/ExploringSocialMetacognition/assets/image/advisor1.png","adviceTime":2003.000000026077,"trial_type":"jspsych-jas-present-advice-choice","trial_index":67,"time_elapsed":138628,"internal_node_id":"0.0-15.0-1.1"},{"startTime":138795.99999985658,"rt":989.9999999906868,"response":[{"id":0,"name":"Left","answer":91,"prompt":"Left","lastChangedTime":139345.99999990314},{"id":1,"name":"Right","answer":"50","prompt":"Right","lastChangedTime":null}],"trial_type":"canvas-sliders-response","trial_index":68,"time_elapsed":139619,"internal_node_id":"0.0-15.0-2.1"}],"confidenceCategory":2,"advisorAgrees":false,"advice":{"filePath":"assets/audio/voices/2/think_left.wav","string":"I think it was on the LEFT","loaded":true,"loading":true,"data":null,"buffer":{},"side":0,"confidence":0}},{"type":1,"typeName":"force","block":3,"advisorId":3,"choice":[],"answer":[1,0],"confidence":[0,29],"whichSide":0,"practice":false,"feedback":false,"warnings":[],"stimulusDrawTime":[140686.99999991804],"stimulusOffTime":[899.9999999068677,null],"fixationDrawTime":[140186.99999991804],"id":22,"dotDifference":4,"grid":{"dotCountL":204,"dotCountR":196,"gridWidth":20,"gridHeight":20,"dotWidth":2,"dotHeight":2,"paddingX":6,"paddingY":6,"gridL":[[0,1,1,1,1,1,0,1,0,1,1,0,1,1,0,1,0,1,1,1],[0,0,1,1,0,1,0,0,0,1,1,0,0,0,1,1,1,0,1,0],[1,0,1,0,1,1,0,0,1,0,1,0,0,0,1,1,0,1,1,1],[1,0,1,0,0,1,1,1,0,0,0,0,0,1,0,1,1,1,0,1],[0,0,1,0,1,0,0,1,0,1,0,1,1,0,1,1,0,0,1,1],[1,0,1,0,1,1,1,1,1,1,0,1,1,0,1,1,1,0,1,0],[0,1,0,0,0,0,0,0,1,0,0,1,1,0,1,0,1,0,0,0],[1,0,1,0,0,0,0,0,0,0,1,1,1,1,0,0,1,1,0,1],[1,0,0,0,1,0,1,1,0,0,1,1,0,0,1,1,0,1,1,1],[0,0,0,1,1,1,1,0,0,1,1,0,0,0,0,0,1,0,1,1],[0,0,0,1,0,1,0,1,1,0,0,0,1,0,1,1,0,0,0,1],[0,0,1,1,1,1,0,0,1,0,0,1,0,1,1,1,1,1,0,0],[0,0,1,1,1,0,0,0,1,0,1,1,0,1,1,0,0,0,0,0],[1,1,0,1,1,1,0,1,0,0,0,1,1,1,0,0,1,1,0,1],[1,1,0,0,0,1,1,1,1,1,0,1,1,0,0,1,1,1,0,0],[0,0,0,1,0,0,0,0,1,0,0,0,1,0,1,0,1,0,1,1],[1,0,1,1,0,1,0,0,0,1,1,1,0,1,0,1,1,0,0,0],[1,0,1,0,0,1,0,0,1,0,1,1,0,0,1,0,1,1,1,1],[0,0,0,1,0,1,1,1,0,0,0,1,1,1,1,0,1,0,1,0],[0,1,1,1,1,1,1,1,1,0,1,1,0,0,1,0,0,0,0,1]],"gridR":[[0,1,1,1,1,0,0,1,0,0,1,1,0,1,1,0,1,0,1,1],[0,0,0,1,0,1,1,1,1,0,1,1,0,0,0,1,0,0,0,0],[1,1,0,1,1,1,1,1,0,0,1,1,0,1,1,0,0,0,1,1],[0,0,0,1,1,0,0,0,1,0,1,1,1,0,1,1,0,1,1,1],[1,1,1,1,1,0,0,0,1,1,0,1,1,0,1,1,1,0,0,1],[0,0,1,1,1,0,0,1,0,1,1,1,1,1,0,1,1,0,1,1],[1,1,1,0,0,0,1,1,0,0,1,0,0,1,0,0,0,1,1,1],[0,0,1,0,0,0,1,0,0,1,1,1,1,0,1,0,0,0,0,0],[0,1,1,0,0,0,1,0,0,1,1,0,0,0,0,1,1,0,0,1],[0,0,0,1,0,1,1,1,1,0,1,0,1,0,0,0,1,0,0,0],[1,1,1,1,1,1,1,1,0,1,1,1,1,1,1,0,1,0,1,0],[0,0,0,0,0,1,0,1,0,0,0,1,0,0,0,0,0,1,0,1],[0,1,0,0,0,0,0,1,0,1,1,0,1,0,0,0,0,0,1,0],[0,0,0,0,0,1,1,0,0,1,0,1,0,1,0,0,0,0,1,1],[1,1,1,0,1,0,0,1,0,1,0,1,0,1,1,0,0,1,1,1],[1,1,0,1,0,0,1,0,0,0,1,0,0,0,1,1,0,1,0,0],[1,0,0,0,1,0,0,0,0,1,0,0,0,1,1,0,0,1,1,0],[1,0,1,1,0,0,0,0,1,0,1,1,0,0,1,0,0,1,1,1],[0,0,0,1,0,1,0,1,1,0,1,0,0,0,1,1,1,0,0,0],[1,1,1,1,1,0,1,1,1,0,1,0,1,1,0,1,0,1,0,1]],"displayWidth":172,"displayHeight":172,"spacing":100,"style":{"gridBorderColor":"#ffffff","gridBorderWidth":"3","dotColor":"#ffffff","dotLineWidth":"1"}},"pluginResponse":[{"startTime":139986.9999999646,"rt":2260.000000009313,"response":[{"id":0,"name":"Left","answer":50,"prompt":"Left","lastChangedTime":null},{"id":1,"name":"Right","answer":"0","prompt":"Right","lastChangedTime":141843.99999980815}],"stimulusOffTime":899.9999999068677,"trial_type":"canvas-sliders-response","trial_index":69,"time_elapsed":142080,"internal_node_id":"0.0-15.0-0.2"},{"choiceTime":0,"choice":3,"totalTime":2002.000000094995,"image":"http://localhost:8080/ExploringSocialMetacognition/assets/image/advisor2.png","adviceTime":2002.000000094995,"trial_type":"jspsych-jas-present-advice-choice","trial_index":70,"time_elapsed":144083,"internal_node_id":"0.0-15.0-1.2"},{"startTime":144253.00000002608,"rt":897.9999998118728,"response":[{"id":0,"name":"Left","answer":29,"prompt":"Left","lastChangedTime":144745.99999981},{"id":1,"name":"Right","answer":"50","prompt":"Right","lastChangedTime":null}],"trial_type":"canvas-sliders-response","trial_index":71,"time_elapsed":144984,"internal_node_id":"0.0-15.0-2.2"}],"confidenceCategory":0,"advisorAgrees":true,"advice":{"filePath":"assets/audio/voices/1/think_left.wav","string":"I think it was on the LEFT","loaded":true,"loading":true,"data":null,"buffer":{},"side":0,"confidence":0}},{"type":2,"typeName":"choice","block":3,"advisorId":3,"choice":[3,1],"answer":[0,1],"confidence":[4,9],"whichSide":0,"practice":false,"feedback":false,"warnings":[],"stimulusDrawTime":[146051.99999990873],"stimulusOffTime":[899.9999999068677,null],"fixationDrawTime":[145551.99999990873],"id":23,"dotDifference":7,"grid":{"dotCountL":207,"dotCountR":193,"gridWidth":20,"gridHeight":20,"dotWidth":2,"dotHeight":2,"paddingX":6,"paddingY":6,"gridL":[[1,1,0,0,0,1,0,1,0,1,1,1,1,1,0,0,1,0,0,0],[1,1,1,0,1,0,1,1,1,1,0,1,0,0,1,0,0,0,1,0],[1,0,1,1,1,0,1,0,1,1,0,1,1,0,0,1,1,1,0,0],[0,1,0,1,0,0,0,1,1,0,0,0,0,1,0,1,1,0,0,1],[1,1,0,1,0,1,1,0,1,1,1,0,0,1,0,1,0,1,1,1],[0,1,0,0,0,0,0,0,1,1,1,0,1,1,0,1,0,1,1,1],[0,0,0,1,0,0,1,0,1,0,1,0,1,1,0,0,1,0,0,0],[0,1,0,1,1,0,0,0,0,1,1,0,0,0,1,1,1,0,0,0],[0,0,1,0,1,1,1,0,0,0,1,0,0,1,0,1,1,0,0,1],[1,1,1,0,0,1,0,0,1,0,0,0,0,1,0,1,0,1,1,0],[0,0,1,0,1,0,0,0,1,0,0,0,1,1,0,1,0,1,0,0],[0,0,1,0,0,1,0,0,1,1,0,1,0,0,0,0,1,1,1,1],[1,1,1,1,0,1,1,1,1,0,0,1,1,0,1,0,0,1,1,0],[1,1,0,1,1,0,1,0,1,1,1,1,1,0,0,0,0,1,0,0],[1,1,1,0,1,1,1,0,0,1,1,0,1,0,0,1,1,1,0,1],[1,0,0,0,0,0,0,0,1,0,1,0,0,0,1,0,0,1,1,0],[1,1,0,1,0,1,1,1,1,1,1,0,1,1,1,0,0,0,1,1],[0,0,1,0,0,1,0,1,0,0,0,1,1,0,0,1,1,1,0,0],[0,1,1,0,1,1,1,1,1,0,1,1,1,0,1,1,1,0,1,0],[1,1,0,1,1,1,0,1,1,1,1,0,1,1,1,1,0,1,0,1]],"gridR":[[0,0,0,1,1,0,1,0,0,1,0,1,0,0,0,0,0,0,1,1],[1,0,0,1,1,0,0,0,1,1,0,1,1,1,0,0,1,1,1,0],[1,1,1,1,1,0,0,0,1,1,0,0,1,1,0,0,0,0,1,1],[0,0,1,1,1,0,1,1,1,1,1,0,1,1,1,0,0,0,0,0],[0,0,1,0,1,0,1,1,0,1,1,0,0,1,0,0,1,1,1,0],[1,1,1,0,0,0,0,0,1,1,1,0,0,0,0,0,1,0,1,0],[0,1,0,1,1,1,0,0,0,1,0,1,1,0,1,1,1,1,1,0],[0,1,1,1,0,1,1,0,0,0,0,0,1,1,1,0,0,0,1,1],[0,0,1,0,0,0,1,1,0,1,1,1,0,0,0,1,0,0,1,1],[1,0,0,0,1,0,1,1,1,0,1,1,0,0,0,1,1,1,0,0],[1,1,0,0,1,0,1,1,1,1,0,0,1,0,0,0,1,0,0,0],[0,0,0,0,0,1,1,0,0,1,1,0,0,1,0,0,0,1,1,0],[0,1,0,1,0,0,0,0,1,0,0,1,0,1,0,0,0,1,1,1],[1,1,0,1,0,1,0,1,1,0,1,0,0,0,0,1,0,1,1,1],[0,0,0,1,1,1,0,0,0,1,1,1,0,1,0,1,0,0,0,0],[1,1,1,1,0,0,1,1,1,0,0,0,1,0,0,1,0,1,1,0],[1,0,1,1,1,1,1,1,1,0,0,1,1,0,0,0,0,1,1,1],[1,1,1,1,1,0,0,0,0,0,0,0,0,1,0,0,0,0,0,1],[0,0,1,0,1,0,1,1,0,1,0,1,1,1,1,0,0,1,0,0],[0,1,1,1,0,1,0,1,0,0,1,0,1,0,0,1,1,0,0,1]],"displayWidth":172,"displayHeight":172,"spacing":100,"style":{"gridBorderColor":"#ffffff","gridBorderWidth":"3","dotColor":"#ffffff","dotLineWidth":"1"}},"pluginResponse":[{"startTime":145351.9999999553,"rt":2496.000000042841,"response":[{"id":0,"name":"Left","answer":4,"prompt":"Left","lastChangedTime":147424.99999981374},{"id":1,"name":"Right","answer":"50","prompt":"Right","lastChangedTime":null}],"stimulusOffTime":899.9999999068677,"trial_type":"canvas-sliders-response","trial_index":72,"time_elapsed":147681,"internal_node_id":"0.0-15.0-0.3"},{"choiceTime":1027.0000000018626,"choice":3,"totalTime":3028.999999864027,"image":"http://localhost:8080/ExploringSocialMetacognition/assets/image/advisor2.png","adviceTime":2001.9999998621643,"trial_type":"jspsych-jas-present-advice-choice","trial_index":73,"time_elapsed":150710,"internal_node_id":"0.0-15.0-1.3"},{"startTime":150878.00000002608,"rt":1171.9999997876585,"response":[{"id":0,"name":"Left","answer":50,"prompt":"Left","lastChangedTime":null},{"id":1,"name":"Right","answer":"9","prompt":"Right","lastChangedTime":151611.9999999646}],"trial_type":"canvas-sliders-response","trial_index":74,"time_elapsed":151885,"internal_node_id":"0.0-15.0-2.3"}],"confidenceCategory":0,"advisorAgrees":false,"advice":{"filePath":"assets/audio/voices/1/think_right.wav","string":"I think it was on the RIGHT","loaded":true,"loading":true,"data":null,"buffer":{},"side":1,"confidence":0}},{"type":2,"typeName":"choice","block":3,"advisorId":1,"choice":[1,3],"answer":[1,1],"confidence":[10,30],"whichSide":1,"practice":false,"feedback":false,"warnings":[],"stimulusDrawTime":[152951.9999998156],"stimulusOffTime":[900.0000001396984,null],"fixationDrawTime":[152451.9999998156],"id":24,"dotDifference":7,"grid":{"dotCountL":193,"dotCountR":207,"gridWidth":20,"gridHeight":20,"dotWidth":2,"dotHeight":2,"paddingX":6,"paddingY":6,"gridL":[[1,0,0,1,1,0,1,1,1,1,0,0,0,0,1,0,0,1,1,0],[0,0,0,0,1,1,1,0,0,1,1,0,0,0,1,1,0,1,1,0],[1,0,1,0,0,0,1,0,1,1,0,1,0,0,0,0,0,1,1,0],[1,1,0,0,1,1,0,0,0,0,0,1,0,0,1,0,0,0,1,0],[1,1,1,0,0,0,1,0,0,0,1,0,0,0,1,1,1,0,1,1],[0,0,0,1,1,1,0,1,1,1,0,1,1,0,0,0,0,0,0,0],[0,0,0,1,0,0,0,1,0,0,0,1,0,1,0,1,0,1,1,1],[1,0,0,1,0,0,0,0,1,1,1,1,0,1,1,0,1,0,0,0],[1,0,1,0,0,0,1,1,1,1,0,1,1,1,0,1,1,1,1,0],[0,1,0,1,0,1,1,1,0,0,1,1,0,1,1,1,1,0,1,1],[0,1,0,0,1,1,0,1,1,1,1,0,1,1,0,0,1,0,0,1],[0,1,1,1,0,0,0,1,0,0,1,1,1,1,0,0,1,0,1,1],[0,1,0,1,1,0,1,0,0,0,1,1,1,0,0,0,0,0,1,0],[0,0,0,1,1,1,0,0,0,0,0,0,1,1,0,1,1,1,0,0],[0,0,1,1,1,0,0,0,0,1,0,0,0,1,1,0,1,1,0,0],[1,1,0,1,1,0,0,1,0,1,1,0,1,0,0,0,0,0,1,1],[0,1,0,1,0,1,0,1,1,0,1,1,0,1,0,1,0,0,0,1],[1,0,0,0,0,0,0,0,0,1,0,0,1,0,1,1,1,1,1,1],[0,0,1,1,0,0,1,0,1,0,1,1,0,1,1,0,1,1,1,1],[1,1,0,0,1,1,0,0,1,0,0,1,1,1,0,1,0,0,1,1]],"gridR":[[1,1,0,1,1,0,0,1,1,0,0,1,0,1,0,0,1,1,0,1],[1,0,1,1,1,0,1,0,0,1,1,1,0,1,0,0,0,1,1,0],[1,1,0,1,0,1,1,1,0,1,1,1,0,0,0,1,1,0,0,1],[1,1,1,1,1,1,1,1,1,0,0,1,0,1,0,1,0,1,1,1],[1,1,0,1,1,0,1,0,1,0,0,1,0,0,0,0,1,1,1,1],[1,1,1,1,1,1,1,0,0,1,0,0,1,1,0,0,1,1,0,0],[1,0,1,0,1,0,0,0,0,1,1,1,0,1,0,0,0,0,1,1],[1,1,1,0,1,0,0,0,1,0,1,0,1,1,1,0,1,0,0,0],[1,0,0,1,0,0,1,0,0,1,1,0,0,1,0,1,1,1,1,0],[1,1,1,0,1,0,0,0,1,1,1,0,0,1,1,0,0,0,0,0],[0,1,1,1,1,0,1,0,0,0,0,0,1,1,0,1,1,1,1,0],[0,1,0,1,0,1,0,0,0,0,0,0,0,1,0,1,0,1,0,0],[1,1,1,1,0,1,1,0,0,0,1,1,0,0,1,0,1,0,0,1],[0,1,0,1,0,1,1,1,0,1,1,0,0,0,1,0,0,0,1,1],[1,0,1,1,1,1,1,0,1,1,0,0,0,1,1,1,1,0,0,1],[1,0,0,1,0,1,1,1,0,0,1,0,1,0,0,1,0,0,0,0],[0,0,1,0,0,1,1,0,1,0,0,0,1,0,1,1,0,1,0,1],[1,1,1,1,1,1,1,0,1,0,0,0,1,0,1,1,1,0,0,1],[0,1,1,0,1,0,0,0,0,0,1,0,1,1,0,0,0,0,1,0],[1,1,1,0,0,1,0,1,1,1,0,1,0,0,0,0,1,0,0,0]],"displayWidth":172,"displayHeight":172,"spacing":100,"style":{"gridBorderColor":"#ffffff","gridBorderWidth":"3","dotColor":"#ffffff","dotLineWidth":"1"}},"pluginResponse":[{"startTime":152251.99999986216,"rt":2181.00000009872,"response":[{"id":0,"name":"Left","answer":50,"prompt":"Left","lastChangedTime":null},{"id":1,"name":"Right","answer":"10","prompt":"Right","lastChangedTime":154020.9999999497}],"stimulusOffTime":900.0000001396984,"trial_type":"canvas-sliders-response","trial_index":75,"time_elapsed":154266,"internal_node_id":"0.0-15.0-0.4"},{"choiceTime":1114.9999999906868,"choice":1,"totalTime":3116.999999852851,"image":"http://localhost:8080/ExploringSocialMetacognition/assets/image/advisor1.png","adviceTime":2001.9999998621643,"trial_type":"jspsych-jas-present-advice-choice","trial_index":76,"time_elapsed":157383,"internal_node_id":"0.0-15.0-1.4"},{"startTime":157551.99999990873,"rt":895.9999999497086,"response":[{"id":0,"name":"Left","answer":50,"prompt":"Left","lastChangedTime":null},{"id":1,"name":"Right","answer":"30","prompt":"Right","lastChangedTime":158015.99999982864}],"trial_type":"canvas-sliders-response","trial_index":77,"time_elapsed":158281,"internal_node_id":"0.0-15.0-2.4"}],"confidenceCategory":0,"advisorAgrees":true,"advice":{"filePath":"assets/audio/voices/2/think_right.wav","string":"I think it was on the RIGHT","loaded":true,"loading":true,"data":null,"buffer":{},"side":1,"confidence":0}},{"type":1,"typeName":"force","block":3,"advisorId":3,"choice":[],"answer":[1,1],"confidence":[28,3],"whichSide":1,"practice":false,"feedback":false,"warnings":[],"stimulusDrawTime":[159348.99999992922],"stimulusOffTime":[899.9999999068677,null],"fixationDrawTime":[158848.99999992922],"id":25,"dotDifference":4,"grid":{"dotCountL":196,"dotCountR":204,"gridWidth":20,"gridHeight":20,"dotWidth":2,"dotHeight":2,"paddingX":6,"paddingY":6,"gridL":[[1,0,0,1,0,0,0,0,0,0,0,1,0,1,0,1,1,0,0,0],[0,0,0,1,0,1,1,1,1,1,0,0,1,1,1,0,0,1,0,0],[0,1,0,1,1,0,0,0,1,1,0,1,0,0,1,0,1,1,0,0],[0,0,1,1,0,1,1,0,0,1,0,1,1,0,0,0,1,0,0,0],[1,1,0,1,0,0,0,0,0,1,0,0,1,0,0,1,1,1,0,0],[0,1,1,0,0,1,1,1,0,0,0,1,0,0,0,1,1,1,0,1],[1,1,0,0,0,1,0,0,1,1,0,1,1,0,0,1,1,1,0,1],[1,0,1,1,0,1,0,1,1,1,0,0,1,1,0,1,1,1,1,1],[0,1,1,0,1,0,0,0,1,1,1,0,1,0,0,0,0,1,0,1],[0,1,1,0,0,0,1,1,1,0,0,0,1,1,0,1,1,0,0,0],[0,0,0,0,0,1,0,1,0,0,1,1,1,1,0,0,0,1,0,1],[1,0,0,0,1,0,0,0,1,1,0,0,0,0,0,1,0,0,0,0],[1,0,1,1,1,0,0,1,1,1,1,0,0,1,1,0,1,1,0,1],[1,0,1,0,1,1,1,0,0,1,1,0,0,1,1,1,1,1,1,0],[1,1,1,1,0,1,1,1,0,0,0,0,0,0,0,1,1,0,1,1],[0,1,0,1,1,1,0,1,1,0,1,0,1,1,0,1,0,0,1,1],[1,0,0,1,1,0,0,1,1,1,1,0,1,1,0,0,0,0,0,0],[1,1,0,0,1,0,0,0,0,0,0,1,0,0,0,1,0,1,0,0],[1,0,0,1,0,0,1,1,1,0,1,1,1,0,1,1,1,1,0,1],[1,1,0,1,0,0,1,1,1,1,0,0,1,0,0,1,1,0,1,1]],"gridR":[[1,1,0,1,0,1,0,1,1,1,0,0,1,0,1,0,1,1,0,0],[0,0,0,0,0,0,1,1,1,1,1,0,0,1,1,0,1,1,0,1],[1,0,0,1,1,1,1,1,0,1,0,0,1,0,1,1,1,0,0,0],[0,0,1,1,0,0,0,0,0,0,0,1,0,0,1,0,0,0,0,1],[0,1,1,1,0,0,1,1,1,0,1,1,1,1,0,0,1,1,1,0],[0,0,0,1,0,1,1,0,1,1,0,1,1,1,0,0,0,1,0,1],[0,0,1,1,0,1,1,0,0,0,1,1,1,1,0,1,1,0,0,1],[1,0,0,0,1,1,0,0,0,1,1,0,0,1,0,0,0,1,0,1],[1,0,0,1,0,0,0,1,1,0,0,1,1,1,0,0,0,1,0,0],[1,1,0,0,1,1,0,1,0,0,0,0,1,1,1,1,1,1,1,1],[0,1,0,1,0,1,0,0,1,1,0,0,0,1,1,0,1,1,1,0],[1,0,0,0,1,1,1,1,1,1,1,1,0,1,0,1,0,0,1,1],[1,0,1,0,1,1,0,1,0,0,0,0,0,1,1,0,1,0,0,0],[1,1,0,1,0,0,0,1,0,1,0,0,0,0,0,1,1,0,0,0],[0,1,0,0,1,1,1,0,0,0,0,1,0,1,1,0,1,1,0,1],[1,1,1,1,1,0,1,0,1,1,0,0,1,1,1,0,0,0,1,1],[1,1,0,0,1,1,1,0,0,0,0,1,1,1,0,1,0,0,1,0],[0,0,0,1,0,0,1,0,1,1,0,0,1,1,0,1,1,0,1,1],[1,1,1,0,0,1,1,0,0,1,1,0,1,0,0,0,1,0,1,1],[0,1,1,0,1,1,0,1,1,0,1,0,1,1,0,0,1,1,1,0]],"displayWidth":172,"displayHeight":172,"spacing":100,"style":{"gridBorderColor":"#ffffff","gridBorderWidth":"3","dotColor":"#ffffff","dotLineWidth":"1"}},"pluginResponse":[{"startTime":158648.9999999758,"rt":2317.9999999701977,"response":[{"id":0,"name":"Left","answer":50,"prompt":"Left","lastChangedTime":null},{"id":1,"name":"Right","answer":"28","prompt":"Right","lastChangedTime":160481.99999984354}],"stimulusOffTime":899.9999999068677,"trial_type":"canvas-sliders-response","trial_index":78,"time_elapsed":160800,"internal_node_id":"0.0-15.0-0.5"},{"choiceTime":0,"choice":3,"totalTime":2002.000000094995,"image":"http://localhost:8080/ExploringSocialMetacognition/assets/image/advisor2.png","adviceTime":2002.000000094995,"trial_type":"jspsych-jas-present-advice-choice","trial_index":79,"time_elapsed":162804,"internal_node_id":"0.0-15.0-1.5"},{"startTime":162971.99999983422,"rt":1631.9999999832362,"response":[{"id":0,"name":"Left","answer":50,"prompt":"Left","lastChangedTime":null},{"id":1,"name":"Right","answer":"3","prompt":"Right","lastChangedTime":163919.9999999255}],"trial_type":"canvas-sliders-response","trial_index":80,"time_elapsed":164437,"internal_node_id":"0.0-15.0-2.5"}],"confidenceCategory":1,"advisorAgrees":false,"advice":{"filePath":"assets/audio/voices/1/left_think.wav","string":"It was on the LEFT, I think","loaded":true,"loading":true,"data":null,"buffer":{},"side":0,"confidence":0}},{"type":2,"typeName":"choice","block":3,"advisorId":1,"choice":[1,3],"answer":[0,0],"confidence":[55,85],"whichSide":1,"practice":false,"feedback":false,"warnings":[],"stimulusDrawTime":[165505.99999981932],"stimulusOffTime":[900.0000001396984,null],"fixationDrawTime":[165005.99999981932],"id":26,"dotDifference":1,"grid":{"dotCountL":199,"dotCountR":201,"gridWidth":20,"gridHeight":20,"dotWidth":2,"dotHeight":2,"paddingX":6,"paddingY":6,"gridL":[[1,0,1,0,1,0,1,1,1,1,1,1,1,0,0,0,1,0,1,0],[1,1,0,0,1,1,0,1,0,1,0,0,1,1,1,1,1,0,0,1],[1,1,1,0,0,1,1,0,1,0,1,0,0,1,0,0,0,1,0,0],[1,0,0,0,1,1,1,1,0,1,0,1,0,1,1,0,1,0,0,0],[0,0,0,1,1,0,0,0,0,0,1,0,0,1,0,0,1,1,1,1],[1,1,1,1,1,0,0,1,1,0,1,0,1,1,1,0,0,0,1,0],[1,1,1,0,1,0,1,1,0,1,1,0,1,0,0,1,1,1,0,0],[0,0,0,1,1,1,1,1,0,1,1,1,1,0,0,0,0,1,1,0],[0,1,1,1,0,0,0,0,0,0,0,0,1,1,0,0,1,1,0,0],[0,0,1,1,1,1,0,0,1,1,0,0,0,1,1,1,1,1,0,0],[0,1,0,1,0,1,0,1,0,1,0,0,1,0,1,1,1,0,0,1],[1,1,1,1,0,0,1,0,0,1,1,0,0,0,0,0,1,0,1,1],[0,0,0,0,1,0,1,1,1,0,0,0,1,1,1,1,0,1,0,0],[0,0,1,0,0,1,1,1,1,0,0,1,1,1,1,0,1,1,0,1],[1,0,0,0,1,1,1,0,1,1,0,1,0,0,0,0,0,1,1,1],[0,0,1,1,0,0,0,0,1,1,0,0,0,0,0,1,1,0,0,0],[0,0,1,1,1,0,0,1,1,1,0,1,1,0,0,1,0,1,0,1],[1,0,0,0,1,0,1,1,1,1,0,0,1,1,1,0,1,0,0,1],[1,1,0,0,1,1,0,0,0,1,1,1,0,0,1,1,1,1,1,0],[0,0,1,0,0,0,1,0,0,0,0,0,0,0,0,1,0,0,0,1]],"gridR":[[1,1,0,1,1,1,0,1,0,1,0,1,0,0,1,1,1,0,1,1],[0,0,0,1,1,1,1,0,1,0,0,0,0,1,1,0,1,0,1,1],[0,0,1,1,1,0,0,0,0,1,0,0,0,0,0,1,0,1,1,0],[0,1,1,0,1,0,1,0,1,0,1,1,0,0,0,1,1,0,1,0],[1,0,0,0,1,1,1,0,1,0,0,1,0,1,1,1,0,1,1,0],[0,1,0,1,0,1,1,1,0,0,0,1,1,0,0,0,0,1,1,0],[0,0,1,1,0,1,1,0,1,0,0,1,1,1,1,1,1,1,0,1],[1,1,1,0,1,1,0,0,0,1,1,1,0,0,1,0,0,0,1,1],[0,1,1,1,1,0,1,0,0,1,0,1,1,1,1,0,1,1,1,1],[1,0,1,0,0,0,1,1,1,1,0,0,0,0,0,0,1,1,1,0],[1,1,0,0,0,0,0,1,1,1,0,0,1,0,0,0,1,0,0,0],[1,0,1,1,0,1,0,1,0,0,1,0,0,1,0,0,0,0,0,0],[0,0,0,1,1,1,0,0,1,0,1,0,0,1,0,0,0,1,1,1],[0,0,0,0,0,1,0,1,1,1,1,1,0,1,1,0,0,1,1,0],[0,1,1,0,1,0,0,1,0,1,1,0,0,0,1,0,0,0,0,1],[0,0,0,0,1,1,1,0,0,1,1,0,0,0,0,0,0,0,0,1],[0,0,1,0,0,1,0,0,1,0,1,1,1,0,1,0,1,1,0,1],[0,1,1,0,0,0,1,0,1,0,0,1,0,1,1,0,1,1,0,0],[1,1,0,1,0,1,1,1,0,1,1,0,0,1,0,1,1,1,1,0],[1,1,1,1,1,1,1,1,0,0,1,1,1,1,1,0,0,1,1,0]],"displayWidth":172,"displayHeight":172,"spacing":100,"style":{"gridBorderColor":"#ffffff","gridBorderWidth":"3","dotColor":"#ffffff","dotLineWidth":"1"}},"pluginResponse":[{"startTime":164805.9999998659,"rt":2157.0000001229346,"response":[{"id":0,"name":"Left","answer":55,"prompt":"Left","lastChangedTime":166530.99999995902},{"id":1,"name":"Right","answer":"50","prompt":"Right","lastChangedTime":null}],"stimulusOffTime":900.0000001396984,"trial_type":"canvas-sliders-response","trial_index":81,"time_elapsed":166798,"internal_node_id":"0.0-15.0-0.6"},{"choiceTime":1149.9999999068677,"choice":1,"totalTime":3152.999999932945,"image":"http://localhost:8080/ExploringSocialMetacognition/assets/image/advisor1.png","adviceTime":2003.000000026077,"trial_type":"jspsych-jas-present-advice-choice","trial_index":82,"time_elapsed":169950,"internal_node_id":"0.0-15.0-1.6"},{"startTime":170118.00000001676,"rt":1141.9999999925494,"response":[{"id":0,"name":"Left","answer":85,"prompt":"Left","lastChangedTime":170729.99999998137},{"id":1,"name":"Right","answer":"50","prompt":"Right","lastChangedTime":null}],"trial_type":"canvas-sliders-response","trial_index":83,"time_elapsed":171099,"internal_node_id":"0.0-15.0-2.6"}],"confidenceCategory":1,"advisorAgrees":false,"advice":{"filePath":"assets/audio/voices/2/think_left.wav","string":"I think it was on the LEFT","loaded":true,"loading":true,"data":null,"buffer":{},"side":0,"confidence":0}},{"type":1,"typeName":"force","block":3,"advisorId":1,"choice":[],"answer":[0,0],"confidence":[82,100],"whichSide":0,"practice":false,"feedback":false,"warnings":[],"stimulusDrawTime":[172167.9999998305],"stimulusOffTime":[899.9999999068677,null],"fixationDrawTime":[171666.99999989942],"id":27,"dotDifference":4,"grid":{"dotCountL":204,"dotCountR":196,"gridWidth":20,"gridHeight":20,"dotWidth":2,"dotHeight":2,"paddingX":6,"paddingY":6,"gridL":[[1,1,0,1,0,1,1,0,1,1,0,0,1,1,1,0,0,0,0,1],[1,1,1,1,0,0,0,0,0,0,1,1,1,0,1,1,1,1,1,0],[0,1,0,1,0,0,0,1,1,0,1,1,1,0,0,1,0,1,0,0],[0,1,1,1,1,0,0,1,1,0,1,0,1,0,0,0,0,1,0,1],[0,1,1,0,0,0,1,0,1,1,1,0,0,0,1,0,1,1,0,0],[0,1,1,0,0,1,0,0,1,0,1,1,1,1,1,0,1,0,1,0],[1,0,0,0,1,1,1,1,0,0,1,1,0,0,1,0,0,0,1,1],[0,1,0,1,0,0,1,1,1,1,1,0,0,0,1,1,0,0,1,1],[1,1,0,0,0,0,0,1,0,1,1,1,0,0,1,0,1,0,1,1],[1,0,0,0,0,1,1,1,0,1,0,0,0,0,1,0,1,1,1,0],[1,1,0,0,0,0,1,0,1,1,1,0,0,0,0,1,1,1,0,1],[1,0,1,1,1,0,1,0,0,1,0,1,1,0,0,1,1,1,1,1],[1,0,1,1,0,1,0,0,1,0,1,1,1,1,0,1,0,0,0,0],[1,0,1,1,1,1,0,0,1,1,0,0,0,0,0,0,0,0,0,0],[0,0,1,0,0,0,1,1,1,1,1,1,0,0,1,1,1,0,1,0],[0,1,1,1,0,1,0,1,1,1,0,0,1,0,0,0,1,0,0,1],[0,1,1,1,0,0,1,1,1,1,0,0,1,0,1,0,0,1,0,0],[1,0,1,0,1,1,0,1,1,0,0,1,0,1,1,1,0,1,0,0],[1,0,1,0,0,0,0,1,0,1,1,1,0,0,1,1,0,0,1,0],[1,1,1,1,1,0,1,0,0,1,0,1,1,0,0,0,0,0,1,1]],"gridR":[[1,0,1,1,1,0,1,0,1,1,0,0,0,1,1,1,0,0,0,1],[1,1,0,1,0,1,0,0,0,1,1,0,1,0,0,1,0,0,1,0],[0,0,1,0,0,1,0,0,1,1,0,0,1,1,1,1,0,0,1,1],[0,0,0,0,1,0,0,0,0,1,0,0,0,0,0,1,1,0,0,1],[0,0,0,1,0,1,0,1,1,1,1,0,0,1,1,1,1,1,0,0],[1,1,1,1,1,0,0,1,1,1,0,1,1,0,1,0,0,0,0,1],[1,0,1,1,0,0,1,1,1,1,1,1,1,1,0,1,1,1,1,1],[1,0,0,0,1,1,0,1,0,0,1,1,0,1,1,1,1,1,0,1],[0,1,0,0,1,0,1,1,0,0,0,0,1,0,1,0,1,0,0,0],[0,0,1,1,1,0,1,0,0,0,0,0,0,0,1,0,0,1,1,0],[1,0,0,0,1,0,0,1,1,1,1,0,1,1,1,1,1,1,0,0],[1,1,1,1,0,0,1,1,0,0,0,1,0,1,1,1,1,0,0,0],[0,0,0,1,1,0,1,0,0,0,0,1,0,1,1,1,0,0,0,0],[1,1,0,0,1,0,1,1,0,0,1,0,1,0,1,0,1,0,1,1],[1,0,1,1,1,1,1,1,0,0,0,0,0,1,0,1,0,1,0,0],[0,0,0,0,0,0,0,1,1,1,1,1,0,0,1,1,0,1,0,1],[0,1,1,1,0,0,1,0,0,1,1,1,0,0,0,1,0,0,0,0],[0,1,1,0,0,1,0,1,0,0,1,0,0,1,1,1,0,1,1,0],[0,0,0,1,0,1,1,1,1,1,0,0,1,1,0,0,0,0,0,0],[1,0,1,1,0,1,0,1,0,1,0,1,0,0,1,0,1,0,0,1]],"displayWidth":172,"displayHeight":172,"spacing":100,"style":{"gridBorderColor":"#ffffff","gridBorderWidth":"3","dotColor":"#ffffff","dotLineWidth":"1"}},"pluginResponse":[{"startTime":171466.99999994598,"rt":2786.0000000800937,"response":[{"id":0,"name":"Left","answer":82,"prompt":"Left","lastChangedTime":173464.999999851},{"id":1,"name":"Right","answer":"50","prompt":"Right","lastChangedTime":null}],"stimulusOffTime":899.9999999068677,"trial_type":"canvas-sliders-response","trial_index":84,"time_elapsed":174087,"internal_node_id":"0.0-15.0-0.7"},{"choiceTime":0,"choice":1,"totalTime":2001.9999998621643,"image":"http://localhost:8080/ExploringSocialMetacognition/assets/image/advisor1.png","adviceTime":2001.9999998621643,"trial_type":"jspsych-jas-present-advice-choice","trial_index":85,"time_elapsed":176090,"internal_node_id":"0.0-15.0-1.7"},{"startTime":176258.9999998454,"rt":1478.0000001192093,"response":[{"id":0,"name":"Left","answer":100,"prompt":"Left","lastChangedTime":177091.0000000149},{"id":1,"name":"Right","answer":"50","prompt":"Right","lastChangedTime":null}],"trial_type":"canvas-sliders-response","trial_index":86,"time_elapsed":177570,"internal_node_id":"0.0-15.0-2.7"}],"confidenceCategory":2,"advisorAgrees":true,"advice":{"filePath":"assets/audio/voices/2/think_left.wav","string":"I think it was on the LEFT","loaded":true,"loading":true,"data":null,"buffer":{},"side":0,"confidence":0}},{"type":1,"typeName":"force","block":3,"advisorId":3,"choice":[],"answer":[1,1],"confidence":[27,50],"whichSide":1,"practice":false,"feedback":false,"warnings":[],"stimulusDrawTime":[178637.99999980256],"stimulusOffTime":[900.0000001396984,null],"fixationDrawTime":[178138.99999996647],"id":28,"dotDifference":4,"grid":{"dotCountL":196,"dotCountR":204,"gridWidth":20,"gridHeight":20,"dotWidth":2,"dotHeight":2,"paddingX":6,"paddingY":6,"gridL":[[1,0,0,1,1,0,1,1,0,1,1,1,0,0,1,0,1,1,1,0],[0,0,0,1,1,0,0,1,0,0,1,1,0,1,0,1,1,1,0,1],[0,1,0,0,1,1,0,0,0,1,0,0,1,1,1,1,1,1,1,1],[1,0,0,1,0,1,0,0,1,1,1,0,0,1,1,0,0,1,1,0],[1,1,1,1,1,1,1,0,0,0,0,1,1,0,1,0,0,0,1,1],[0,0,0,0,1,0,1,1,0,0,0,0,1,0,0,0,0,0,1,1],[0,1,1,1,1,1,1,0,1,1,1,0,0,0,0,0,0,1,1,1],[1,0,0,0,0,1,1,0,0,1,0,0,1,0,1,0,1,0,1,1],[1,1,0,0,0,1,1,1,1,0,1,0,1,1,0,1,0,0,0,1],[1,0,0,1,0,0,1,0,0