{"participantId":1520255229075,"dotCount":200,"dotDifference":15,"difficultyStep":3,"advisors":[{"id":1,"adviceType":0,"voice":{"basePath":"","id":3,"name":"Kate","lines":{"think_left":{"filePath":"assets/audio/voices/3/think_left.wav","string":"I think it was on the LEFT","loaded":true,"loading":true,"data":null,"buffer":{},"side":0,"confidence":0},"think_right":{"filePath":"assets/audio/voices/3/think_right.wav","string":"I think it was on the RIGHT","loaded":true,"loading":true,"data":null,"buffer":{},"side":1,"confidence":0},"left_think":{"filePath":"assets/audio/voices/3/left_think.wav","string":"It was on the LEFT, I think","loaded":true,"loading":true,"data":null,"buffer":{},"side":0,"confidence":0},"right_think":{"filePath":"assets/audio/voices/3/right_think.wav","string":"It was on the RIGHT, I think","loaded":true,"loading":true,"data":null,"buffer":{},"side":1,"confidence":0},"intro":{"filePath":"assets/audio/voices/3/intro.wav","string":"Hello, my name is KATE","loaded":true,"loading":true,"data":null,"buffer":{},"side":false}}},"name":"Kate","portrait":{},"portraitSrc":"http://localhost:8080/ExploringSocialMetacognition/assets/image/advisor2.png"},{"id":2,"adviceType":1,"voice":{"basePath":"","id":2,"name":"Bea","lines":{"think_left":{"filePath":"assets/audio/voices/2/think_left.wav","string":"I think it was on the LEFT","loaded":true,"loading":true,"data":null,"buffer":{},"side":0,"confidence":0},"think_right":{"filePath":"assets/audio/voices/2/think_right.wav","string":"I think it was on the RIGHT","loaded":true,"loading":true,"data":null,"buffer":{},"side":1,"confidence":0},"left_think":{"filePath":"assets/audio/voices/2/left_think.wav","string":"It was on the LEFT, I think","loaded":true,"loading":true,"data":null,"buffer":{},"side":0,"confidence":0},"right_think":{"filePath":"assets/audio/voices/2/right_think.wav","string":"It was on the RIGHT, I think","loaded":true,"loading":true,"data":null,"buffer":{},"side":1,"confidence":0},"intro":{"filePath":"assets/audio/voices/2/intro.wav","string":"Hello, my name is BEA","loaded":true,"loading":true,"data":null,"buffer":{},"side":false}}},"name":"Bea","portrait":{},"portraitSrc":"http://localhost:8080/ExploringSocialMetacognition/assets/image/advisor3.png"},{"id":3,"adviceType":2,"voice":{"basePath":"","id":1,"name":"Annie","lines":{"think_left":{"filePath":"assets/audio/voices/1/think_left.wav","string":"I think it was on the LEFT","loaded":true,"loading":true,"data":null,"buffer":{},"side":0,"confidence":0},"think_right":{"filePath":"assets/audio/voices/1/think_right.wav","string":"I think it was on the RIGHT","loaded":true,"loading":true,"data":null,"buffer":{},"side":1,"confidence":0},"left_think":{"filePath":"assets/audio/voices/1/left_think.wav","string":"It was on the LEFT, I think","loaded":true,"loading":true,"data":null,"buffer":{},"side":0,"confidence":0},"right_think":{"filePath":"assets/audio/voices/1/right_think.wav","string":"It was on the RIGHT, I think","loaded":true,"loading":true,"data":null,"buffer":{},"side":1,"confidence":0},"intro":{"filePath":"assets/audio/voices/1/intro.wav","string":"Hello, my name is ANNIE","loaded":true,"loading":true,"data":null,"buffer":{},"side":false}}},"name":"Annie","portrait":{},"portraitSrc":"http://localhost:8080/ExploringSocialMetacognition/assets/image/advisor1.png"}],"blockCount":2,"blockStructure":{"0":0,"1":6,"2":6},"blockLength":12,"practiceBlockCount":1,"practiceBlockStructure":{"0":0,"1":4,"2":0},"practiceBlockLength":4,"preTrialInterval":200,"preStimulusInterval":500,"stimulusDuration":200,"feedbackDuration":200,"questionnaireFrequency":4,"questionnaireStack":[],"miscTrials":[{"view_history":"[{\"page_index\":0,\"viewing_time\":8123},{\"page_index\":1,\"viewing_time\":1032}]","rt":9156,"trial_type":"instructions","trial_index":0,"time_elapsed":9156,"internal_node_id":"0.0-0.0"},{"view_history":"[{\"page_index\":0,\"viewing_time\":663}]","rt":663,"trial_type":"instructions","trial_index":2,"time_elapsed":12534,"internal_node_id":"0.0-2.0"},{"view_history":"[{\"page_index\":0,\"viewing_time\":838}]","rt":838,"trial_type":"instructions","trial_index":4,"time_elapsed":16155,"internal_node_id":"0.0-4.0"},{"view_history":"[{\"page_index\":0,\"viewing_time\":997}]","rt":997,"trial_type":"instructions","trial_index":8,"time_elapsed":23192,"internal_node_id":"0.0-6.0"},{"view_history":"[{\"page_index\":0,\"viewing_time\":947}]","rt":947,"trial_type":"instructions","trial_index":22,"time_elapsed":53717,"internal_node_id":"0.0-9.0"},{"view_history":"[{\"page_index\":0,\"viewing_time\":1123}]","rt":1124,"trial_type":"instructions","trial_index":23,"time_elapsed":54842,"internal_node_id":"0.0-10.0"},{"view_history":"[{\"page_index\":0,\"viewing_time\":1049}]","rt":1050,"trial_type":"instructions","trial_index":62,"time_elapsed":142030,"internal_node_id":"0.0-14.0"}],"trials":[{"type":1,"typeName":"force","block":1,"advisorId":0,"choice":[],"answer":[1,null],"confidence":[68,null],"whichSide":1,"practice":true,"feedback":true,"warnings":[],"stimulusDrawTime":[10100.000000093132],"stimulusOffTime":[null],"fixationDrawTime":[9600.000000093132],"id":1,"dotDifference":30,"grid":{"dotCountL":170,"dotCountR":230,"gridWidth":20,"gridHeight":20,"dotWidth":2,"dotHeight":2,"paddingX":6,"paddingY":6,"gridL":[[0,0,1,1,0,1,1,0,1,0,0,0,0,0,0,0,0,0,1,1],[1,0,0,1,1,1,1,0,0,0,0,0,1,0,1,0,1,0,1,0],[0,0,0,1,0,0,0,0,0,0,1,0,0,1,1,1,0,0,0,0],[0,1,1,1,0,1,0,0,1,0,1,0,0,1,0,1,0,0,1,0],[1,0,0,0,1,0,0,0,0,1,1,1,0,0,0,0,1,0,1,1],[1,0,0,0,0,1,0,0,0,0,0,1,0,1,1,0,0,0,0,0],[0,1,1,1,0,0,0,1,1,1,1,0,1,0,1,0,0,0,0,1],[1,1,1,0,0,1,0,0,0,1,1,1,0,0,1,1,0,1,0,0],[1,1,0,1,1,0,1,1,0,0,1,0,0,1,1,0,0,1,1,1],[0,0,1,1,1,1,0,0,0,1,0,0,0,0,0,0,0,1,0,0],[0,0,0,0,1,1,0,0,0,0,1,1,0,0,0,1,1,0,1,0],[0,0,1,0,0,1,1,0,0,1,0,0,0,0,0,1,1,0,1,0],[0,0,0,1,0,0,0,1,0,1,0,0,1,0,1,0,0,1,0,1],[1,0,0,0,0,0,1,0,0,1,0,1,1,0,1,1,1,1,0,1],[0,0,0,0,1,1,1,0,1,0,1,1,0,0,0,0,0,1,0,1],[0,0,1,1,1,1,0,1,1,1,1,0,0,0,0,1,0,1,1,0],[1,0,1,1,1,1,1,0,0,1,1,0,1,1,0,1,0,1,0,1],[0,0,0,1,0,0,1,0,0,1,1,0,0,1,1,1,1,1,1,1],[0,1,1,0,0,1,0,0,0,1,0,1,0,0,0,0,1,0,0,0],[1,1,0,1,0,1,1,1,0,1,0,1,1,0,0,0,0,0,0,0]],"gridR":[[1,0,1,1,1,0,0,1,1,0,0,0,1,1,1,0,1,0,1,0],[0,1,1,0,0,1,1,1,0,0,1,0,0,0,1,0,1,0,0,0],[1,0,0,1,0,0,1,1,0,0,1,1,1,1,0,1,1,1,1,1],[1,1,1,1,1,0,1,0,1,0,1,1,1,1,0,1,0,1,0,0],[0,1,1,0,0,0,0,1,0,0,0,1,1,0,1,0,1,0,0,0],[1,1,1,1,1,0,1,1,1,0,1,0,0,1,0,1,1,1,1,0],[1,1,0,1,0,1,0,1,0,0,0,1,1,0,0,1,1,0,1,0],[1,1,1,1,0,1,0,1,1,0,1,0,0,0,1,1,1,1,1,1],[1,1,1,1,1,1,1,1,1,1,1,0,0,1,0,0,1,1,0,1],[0,1,1,1,0,1,1,1,0,0,0,0,0,1,1,1,1,1,1,0],[0,1,0,1,1,0,0,0,1,0,1,0,1,0,0,1,0,1,1,0],[1,1,1,1,1,1,1,1,0,0,0,0,1,1,1,0,0,1,0,0],[0,1,1,1,1,1,1,0,1,1,1,1,0,1,1,1,0,1,1,0],[1,1,0,0,1,1,0,0,0,1,1,1,1,0,1,0,1,1,0,1],[1,0,0,1,0,1,1,1,1,1,0,1,0,0,0,1,1,1,1,0],[1,0,1,0,1,0,0,1,1,1,0,1,1,0,1,1,1,1,1,0],[0,0,1,0,0,1,1,1,0,0,1,1,0,0,0,0,1,1,1,1],[1,0,0,0,1,1,0,0,0,0,1,1,0,0,1,0,1,0,0,0],[0,1,1,1,0,0,0,1,1,1,1,0,1,0,1,1,1,1,1,0],[0,0,1,1,0,0,1,1,0,0,1,0,1,1,1,1,0,0,1,0]],"displayWidth":172,"displayHeight":172,"spacing":100,"style":{"gridBorderColor":"#ffffff","gridBorderWidth":"3","dotColor":"#ffffff","dotLineWidth":"1"}},"pluginResponse":[{"startTime":9400.000000139698,"rt":2510.000000009313,"response":[{"id":0,"name":"Left","answer":50,"prompt":"Left","lastChangedTime":null},{"id":1,"name":"Right","answer":"68","prompt":"Right","lastChangedTime":11262.000000104308}],"trial_type":"canvas-sliders-response","trial_index":1,"time_elapsed":11669,"internal_node_id":"0.0-1.0"}]},{"type":1,"typeName":"force","block":1,"advisorId":0,"choice":[],"answer":[0,null],"confidence":[82,null],"whichSide":0,"practice":true,"feedback":true,"warnings":[],"stimulusDrawTime":[13476.999999955297],"stimulusOffTime":[null],"fixationDrawTime":[12976.999999955297],"id":2,"dotDifference":30,"grid":{"dotCountL":230,"dotCountR":170,"gridWidth":20,"gridHeight":20,"dotWidth":2,"dotHeight":2,"paddingX":6,"paddingY":6,"gridL":[[0,1,1,0,1,0,0,1,1,1,1,0,1,0,1,1,1,0,1,0],[1,0,1,1,0,0,0,1,1,1,1,0,0,1,0,1,1,1,1,0],[1,1,0,1,1,1,1,1,0,1,1,1,0,0,0,1,0,0,1,0],[0,1,1,1,0,0,1,0,1,1,1,1,1,1,1,1,1,1,1,1],[1,0,0,0,1,1,0,0,0,0,0,1,0,1,1,1,1,1,0,1],[1,0,1,1,0,1,0,0,0,0,0,0,1,0,0,1,1,1,0,1],[0,0,1,1,0,1,1,1,1,0,1,1,0,1,1,0,1,1,1,0],[1,0,1,1,0,1,1,0,1,1,0,1,1,1,1,0,0,1,0,0],[1,1,1,0,1,0,0,0,0,0,1,1,0,1,0,0,1,0,1,0],[0,1,0,0,0,0,0,0,1,1,0,0,1,0,1,0,1,0,1,0],[0,1,1,1,1,1,1,1,0,0,1,0,1,0,1,0,1,1,1,1],[1,0,1,1,1,0,0,1,1,0,0,1,1,1,1,0,1,1,0,1],[1,0,0,1,1,0,0,1,0,0,1,1,1,1,1,1,0,0,1,0],[0,0,1,0,1,0,1,1,1,0,0,1,0,0,0,1,0,1,0,1],[1,0,0,0,0,0,0,1,1,1,1,1,0,1,1,0,0,1,0,1],[1,1,1,0,0,1,0,0,1,1,1,1,1,0,0,1,1,1,1,0],[1,0,1,1,1,1,1,0,0,0,1,1,0,0,1,0,0,1,0,0],[0,1,1,1,1,1,1,1,1,0,1,0,0,1,1,0,1,1,1,1],[0,1,0,0,1,0,0,1,1,0,1,0,0,1,1,0,1,1,1,1],[1,1,1,0,0,0,0,1,0,1,1,1,0,1,0,1,1,0,1,1]],"gridR":[[0,1,1,0,1,1,0,0,1,0,1,0,1,0,0,1,0,1,0,1],[0,0,0,0,0,0,0,0,0,1,0,0,1,1,0,1,1,1,1,0],[1,0,0,0,1,1,0,1,0,0,0,0,1,1,1,0,0,1,1,1],[1,1,0,0,1,1,0,1,0,1,1,1,1,0,0,0,1,1,1,0],[1,0,1,0,1,0,0,0,0,1,0,0,0,1,0,1,0,1,0,0],[0,0,0,1,1,1,0,1,1,0,1,0,0,0,1,0,0,0,1,0],[1,1,1,0,0,0,0,0,1,0,1,0,1,1,1,0,1,1,1,0],[0,1,1,1,1,1,0,1,0,1,0,0,0,0,1,1,1,0,1,0],[0,1,0,0,1,0,0,1,0,1,0,0,1,1,0,0,0,1,1,0],[0,0,0,1,0,0,0,0,1,1,1,0,1,0,0,0,0,0,1,1],[0,0,0,1,1,0,0,0,0,0,1,0,1,0,1,0,0,0,0,1],[0,1,0,1,0,0,0,0,0,1,1,1,1,0,1,1,1,1,0,1],[0,1,0,1,0,0,0,1,1,0,0,0,0,1,1,0,0,0,0,0],[1,0,1,0,0,1,1,1,0,0,1,1,0,0,0,0,1,1,1,0],[0,0,0,0,1,0,0,0,0,1,0,0,0,0,0,0,0,0,1,0],[1,0,0,0,0,1,0,1,0,1,0,1,0,0,0,0,0,1,0,1],[0,1,1,0,0,0,1,0,0,1,1,1,0,0,1,1,1,0,1,0],[1,1,1,1,0,0,0,1,0,0,1,0,0,1,0,1,0,0,0,1],[0,0,1,1,1,0,0,0,0,0,0,1,0,1,0,1,1,0,1,0],[0,0,0,1,1,1,1,1,1,0,1,0,0,0,0,1,0,0,0,1]],"displayWidth":172,"displayHeight":172,"spacing":100,"style":{"gridBorderColor":"#ffffff","gridBorderWidth":"3","dotColor":"#ffffff","dotLineWidth":"1"}},"pluginResponse":[{"startTime":12777.000000001863,"rt":2581.99999993667,"response":[{"id":0,"name":"Left","answer":82,"prompt":"Left","lastChangedTime":14671.000000089407},{"id":1,"name":"Right","answer":"50","prompt":"Right","lastChangedTime":null}],"trial_type":"canvas-sliders-response","trial_index":3,"time_elapsed":15118,"internal_node_id":"0.0-3.0"}]},{"type":1,"typeName":"force","block":1,"advisorId":1,"choice":[],"answer":[1,1],"confidence":[58,80],"whichSide":1,"practice":true,"feedback":true,"warnings":["getConfidenceCategory: too few trials available to estimate confidence"],"stimulusDrawTime":[17097.999999998137],"stimulusOffTime":[null,null],"fixationDrawTime":[16598.99999992922],"id":3,"dotDifference":30,"grid":{"dotCountL":170,"dotCountR":230,"gridWidth":20,"gridHeight":20,"dotWidth":2,"dotHeight":2,"paddingX":6,"paddingY":6,"gridL":[[1,1,1,0,1,1,0,0,0,1,0,1,0,0,0,0,1,0,0,1],[0,1,1,1,0,1,1,0,0,0,0,1,0,1,1,0,0,1,0,0],[0,0,1,0,0,0,0,1,1,0,0,0,0,1,1,0,1,1,0,1],[0,1,1,0,1,0,1,1,0,0,1,0,1,1,1,1,0,0,0,1],[0,0,1,0,0,1,0,1,1,1,1,0,0,1,0,1,0,0,1,1],[1,0,0,0,1,0,0,0,0,0,1,1,1,0,1,0,1,1,1,1],[1,0,0,1,1,1,0,1,1,1,0,0,1,0,0,0,0,0,0,1],[0,0,1,1,0,0,1,0,1,1,0,0,0,1,0,1,1,1,0,1],[0,0,1,1,0,0,1,1,0,0,0,1,0,0,0,0,0,0,0,0],[1,0,1,1,0,0,0,1,0,1,1,0,0,0,1,0,0,1,1,0],[0,0,1,0,1,0,0,1,1,0,1,0,1,1,1,0,0,0,0,0],[1,0,0,1,0,0,0,0,0,0,0,1,0,1,1,0,0,0,0,1],[0,0,0,1,1,1,0,0,1,0,0,0,0,0,1,1,0,1,0,1],[1,0,0,1,1,0,1,1,0,0,1,0,0,0,0,1,1,1,0,0],[1,1,0,0,1,0,1,1,0,0,1,0,0,1,1,1,0,0,0,0],[0,0,0,0,0,1,0,0,0,0,1,1,1,1,0,0,0,1,0,0],[0,0,0,0,0,0,1,1,0,0,0,0,0,1,1,1,0,0,1,0],[0,0,0,0,0,0,0,1,0,0,1,1,0,1,0,1,0,0,1,0],[1,0,0,1,1,1,1,1,1,0,1,1,0,1,0,1,0,1,0,1],[1,0,1,1,1,0,1,0,1,0,0,0,1,0,0,0,1,0,1,0]],"gridR":[[1,1,0,1,1,0,1,1,1,0,0,0,0,0,0,0,0,1,1,1],[1,1,1,1,1,1,1,0,0,1,0,1,1,0,1,1,0,1,0,1],[1,0,1,0,1,0,1,0,0,1,1,0,0,1,0,1,0,1,0,0],[1,1,1,1,0,1,1,1,0,0,1,1,0,1,0,1,1,1,0,0],[0,1,0,0,1,1,1,0,1,1,1,1,0,0,0,1,0,0,0,1],[1,1,1,1,0,0,1,1,0,1,1,1,0,1,0,1,1,0,0,1],[1,1,0,0,0,1,0,1,1,0,1,0,0,0,0,1,1,0,0,0],[0,1,0,1,1,1,1,1,0,0,1,1,0,0,1,1,1,0,0,1],[1,1,1,1,1,1,0,1,1,1,1,0,1,1,1,1,1,0,1,1],[1,1,0,1,1,0,1,1,0,0,1,1,0,0,0,1,1,1,0,1],[0,0,0,1,0,0,0,0,0,0,1,1,1,0,0,1,0,0,1,0],[0,1,0,0,0,0,1,0,1,0,1,1,1,1,1,1,1,1,0,1],[0,0,0,1,0,1,1,1,0,1,0,0,0,1,1,0,0,0,0,0],[0,1,0,1,1,0,0,0,0,1,0,1,1,1,1,1,0,1,1,0],[1,0,1,0,1,1,1,1,0,1,1,0,1,1,1,1,1,1,1,1],[1,1,0,1,1,1,1,1,1,0,0,1,0,1,1,0,1,1,1,1],[0,0,0,0,1,1,1,0,1,1,1,0,0,0,1,0,1,1,1,0],[1,0,1,1,0,0,1,0,0,0,0,0,1,1,0,1,0,1,1,1],[0,1,1,1,1,0,1,1,1,1,1,1,1,1,1,1,0,0,0,1],[1,1,0,0,0,0,1,1,1,0,1,0,1,1,0,0,0,1,1,0]],"displayWidth":172,"displayHeight":172,"spacing":100,"style":{"gridBorderColor":"#ffffff","gridBorderWidth":"3","dotColor":"#ffffff","dotLineWidth":"1"}},"pluginResponse":[{"startTime":16398.000000044703,"rt":2219.9999999720603,"response":[{"id":0,"name":"Left","answer":50,"prompt":"Left","lastChangedTime":null},{"id":1,"name":"Right","answer":"58","prompt":"Right","lastChangedTime":18101.000000024214}],"trial_type":"canvas-sliders-response","trial_index":5,"time_elapsed":18376,"internal_node_id":"0.0-5.0-0.0"},{"choiceTime":0.9999999310821295,"choice":1,"totalTime":2004.9999998882413,"image":"http://localhost:8080/ExploringSocialMetacognition/assets/image/advisor2.png","adviceTime":2003.9999999571592,"trial_type":"jspsych-jas-present-advice-choice","trial_index":6,"time_elapsed":20581,"internal_node_id":"0.0-5.0-1.0"},{"startTime":20826.000000117347,"rt":1409.999999916181,"response":[{"id":0,"name":"Left","answer":50,"prompt":"Left","lastChangedTime":null},{"id":1,"name":"Right","answer":"80","prompt":"Right","lastChangedTime":21701.000000117347}],"trial_type":"canvas-sliders-response","trial_index":7,"time_elapsed":21993,"internal_node_id":"0.0-5.0-2.0"}],"confidenceCategory":1,"advisorAgrees":true,"advice":{"filePath":"assets/audio/voices/3/think_right.wav","string":"I think it was on the RIGHT","loaded":true,"loading":true,"data":null,"buffer":{},"side":1,"confidence":0}},{"type":1,"typeName":"force","block":1,"advisorId":1,"choice":[],"answer":[1,1],"confidence":[39,17],"whichSide":1,"practice":true,"feedback":true,"warnings":[],"stimulusDrawTime":[24135.000000009313],"stimulusOffTime":[901.0000000707805,null],"fixationDrawTime":[23635.000000009313],"id":4,"dotDifference":27,"grid":{"dotCountL":173,"dotCountR":227,"gridWidth":20,"gridHeight":20,"dotWidth":2,"dotHeight":2,"paddingX":6,"paddingY":6,"gridL":[[0,0,1,1,0,0,0,0,0,1,0,1,1,0,0,0,1,1,0,0],[1,0,0,1,1,0,1,1,0,0,0,1,0,0,0,0,0,0,1,0],[1,0,0,0,1,0,1,1,1,1,1,1,1,0,0,0,0,0,0,1],[1,1,1,1,0,1,0,0,1,0,0,1,1,0,1,0,0,0,0,1],[0,1,0,0,0,0,0,1,0,0,0,0,1,0,1,1,1,1,0,0],[0,0,0,0,1,1,0,0,1,0,0,0,0,1,0,1,1,0,1,0],[1,0,1,0,0,0,1,1,0,0,0,1,0,1,1,1,1,0,0,0],[0,1,1,0,0,1,1,0,1,1,0,0,1,1,1,0,0,0,0,0],[1,0,0,1,1,0,0,0,0,1,1,0,0,1,0,1,0,1,1,0],[0,0,1,1,0,0,1,1,0,0,0,1,0,1,1,0,0,1,0,1],[0,0,1,1,0,1,0,1,1,0,0,0,1,1,0,1,0,1,0,0],[0,0,0,0,1,0,1,0,0,0,0,0,1,1,1,0,0,0,1,1],[0,0,0,0,0,0,1,1,1,1,1,1,1,1,1,0,0,1,0,1],[1,0,1,1,0,0,1,0,0,1,0,0,0,0,0,0,0,1,1,1],[0,0,0,1,0,1,0,0,1,0,1,0,1,0,1,0,1,1,0,1],[0,0,1,0,1,0,0,0,1,0,0,1,1,0,1,0,0,1,0,1],[0,1,1,0,1,0,0,0,1,0,1,1,0,0,1,0,0,1,1,1],[1,1,1,0,0,0,1,1,0,1,0,1,0,0,0,1,0,1,0,1],[0,1,1,0,0,0,1,0,1,0,0,0,0,0,1,0,0,0,0,1],[1,0,0,1,0,0,1,1,0,0,0,0,0,1,1,1,1,1,1,1]],"gridR":[[0,0,1,0,0,1,1,0,0,0,0,1,0,1,1,1,0,0,1,1],[0,1,0,1,1,0,1,0,0,0,0,1,0,1,1,1,1,1,0,1],[0,0,1,0,0,1,1,1,0,1,1,1,1,0,1,0,1,0,0,1],[0,1,0,0,0,1,0,1,0,1,1,1,1,1,1,0,1,0,1,1],[1,0,1,0,0,0,1,0,0,0,1,1,1,1,0,1,0,1,1,1],[0,1,1,1,0,1,1,1,1,0,0,0,1,1,1,1,1,1,0,1],[1,0,1,1,0,1,1,0,1,1,1,0,0,0,1,0,0,0,0,1],[0,1,0,1,1,1,0,1,0,0,0,1,0,1,0,0,1,1,1,0],[1,1,1,0,1,1,1,0,1,1,1,0,1,0,1,1,0,1,1,0],[1,0,1,0,0,1,1,1,0,1,1,1,0,1,1,0,1,1,1,1],[1,1,0,1,1,0,0,0,0,0,1,0,0,1,1,1,1,1,1,1],[1,1,0,1,1,0,1,0,0,1,1,1,1,0,0,1,0,1,0,0],[0,0,0,0,0,1,1,0,0,0,0,0,1,1,0,0,0,0,1,0],[1,1,1,1,0,1,1,0,1,0,1,0,0,1,1,1,0,1,1,0],[1,1,1,1,0,1,0,0,0,0,0,1,1,1,0,0,0,1,0,0],[1,1,1,0,1,1,1,1,0,0,1,1,0,1,0,1,0,1,1,0],[1,1,1,1,1,1,1,1,0,0,0,1,1,0,0,1,0,0,0,1],[1,0,0,1,0,1,0,1,0,1,0,1,0,1,1,1,1,1,1,1],[1,0,1,1,1,1,1,1,1,0,0,0,0,1,1,0,1,1,1,1],[0,0,1,0,0,1,1,0,1,0,1,0,0,1,0,1,1,0,1,0]],"displayWidth":172,"displayHeight":172,"spacing":100,"style":{"gridBorderColor":"#ffffff","gridBorderWidth":"3","dotColor":"#ffffff","dotLineWidth":"1"}},"pluginResponse":[{"startTime":23435.00000005588,"rt":2371.999999973923,"response":[{"id":0,"name":"Left","answer":50,"prompt":"Left","lastChangedTime":null},{"id":1,"name":"Right","answer":"39","prompt":"Right","lastChangedTime":25208.000000100583}],"stimulusOffTime":901.0000000707805,"trial_type":"canvas-sliders-response","trial_index":9,"time_elapsed":25566,"internal_node_id":"0.0-7.0-0.0"},{"choiceTime":0,"choice":1,"totalTime":2002.000000094995,"image":"http://localhost:8080/ExploringSocialMetacognition/assets/image/advisor2.png","adviceTime":2002.000000094995,"trial_type":"jspsych-jas-present-advice-choice","trial_index":10,"time_elapsed":27568,"internal_node_id":"0.0-7.0-1.0"},{"startTime":27810.99999998696,"rt":1138.9999999664724,"response":[{"id":0,"name":"Left","answer":50,"prompt":"Left","lastChangedTime":null},{"id":1,"name":"Right","answer":"17","prompt":"Right","lastChangedTime":28463.999999919906}],"trial_type":"canvas-sliders-response","trial_index":11,"time_elapsed":28710,"internal_node_id":"0.0-7.0-2.0"}],"confidenceCategory":0,"advisorAgrees":false,"advice":{"filePath":"assets/audio/voices/3/left_think.wav","string":"It was on the LEFT, I think","loaded":true,"loading":true,"data":null,"buffer":{},"side":0,"confidence":0}},{"type":1,"typeName":"force","block":1,"advisorId":1,"choice":[],"answer":[0,0],"confidence":[55,33],"whichSide":0,"practice":true,"feedback":true,"warnings":[],"stimulusDrawTime":[29854.00000005029],"stimulusOffTime":[901.0000000707805,null],"fixationDrawTime":[29354.00000005029],"id":5,"dotDifference":24,"grid":{"dotCountL":224,"dotCountR":176,"gridWidth":20,"gridHeight":20,"dotWidth":2,"dotHeight":2,"paddingX":6,"paddingY":6,"gridL":[[1,1,1,0,0,0,1,1,1,0,1,0,1,1,1,1,0,1,1,0],[0,1,0,0,0,1,0,0,1,0,1,1,1,1,1,0,1,1,1,1],[1,1,1,1,1,1,0,1,1,1,0,0,1,1,1,0,1,1,0,1],[1,1,1,0,1,1,1,1,1,1,0,0,0,0,1,1,0,0,1,1],[1,1,0,0,1,1,0,1,1,1,1,1,1,1,1,1,0,0,1,1],[0,0,0,1,0,1,0,1,0,1,1,0,0,1,1,0,0,1,0,1],[0,1,0,1,1,1,1,1,0,1,1,0,1,1,1,0,0,0,0,1],[1,0,1,1,1,1,0,1,0,1,0,0,0,1,1,0,0,1,0,0],[1,1,1,1,1,1,1,0,0,0,1,1,0,1,0,0,1,0,0,0],[1,1,1,0,0,1,0,0,0,0,1,0,0,0,0,0,1,1,1,1],[1,1,1,1,0,0,1,1,1,1,1,1,0,0,0,1,1,0,1,0],[1,1,0,0,0,0,1,0,0,0,0,0,0,1,1,1,0,1,1,1],[0,0,1,1,1,0,0,0,0,1,1,1,1,0,0,1,0,1,1,0],[1,1,0,0,1,0,1,0,0,0,1,0,0,0,0,0,1,0,1,1],[0,0,0,1,1,0,1,1,1,1,1,0,0,1,0,0,1,0,1,1],[1,1,0,1,1,1,1,1,1,0,1,1,1,0,1,0,1,0,0,1],[0,0,1,1,0,0,0,1,1,0,0,1,1,0,0,0,1,0,1,1],[1,0,0,1,1,0,0,1,0,0,1,0,0,1,0,0,0,0,1,1],[1,0,1,1,1,0,1,0,0,0,1,1,0,0,0,0,1,1,1,1],[1,0,1,1,1,0,0,0,0,1,0,1,1,1,1,0,0,1,1,1]],"gridR":[[1,0,0,0,0,0,1,0,1,0,0,1,0,0,1,0,1,1,1,1],[1,0,1,1,1,1,1,0,1,1,1,0,0,0,0,0,0,0,1,0],[1,0,1,0,0,1,1,0,0,0,0,0,1,0,0,0,1,0,1,0],[1,0,1,0,1,0,1,0,0,1,0,1,1,0,1,0,1,0,0,1],[0,0,1,0,1,0,1,0,0,1,1,0,1,1,0,0,0,1,1,0],[0,0,1,1,0,1,1,1,1,0,1,0,0,0,0,0,0,0,1,0],[1,0,1,0,0,0,0,1,0,1,0,0,1,1,0,0,1,0,1,0],[0,1,0,0,1,1,0,1,1,0,1,0,1,0,0,1,1,0,1,1],[0,1,0,0,0,1,0,0,1,1,1,1,1,0,1,1,0,0,0,1],[0,0,0,0,1,0,0,0,0,1,0,1,1,0,1,0,0,1,1,1],[0,0,1,0,0,0,1,0,0,1,1,0,0,0,0,0,1,0,1,1],[0,1,0,0,0,1,0,0,0,0,1,0,1,1,0,0,1,1,0,1],[0,0,0,0,0,0,0,1,1,0,1,1,1,0,0,0,0,1,1,0],[1,1,1,0,0,0,0,1,0,0,0,0,0,0,1,0,1,1,1,0],[1,0,0,0,0,0,1,0,0,0,1,0,0,1,1,0,0,0,1,0],[0,0,0,1,0,1,1,1,0,1,1,0,1,1,0,1,0,1,0,0],[0,1,1,0,0,1,1,1,0,1,0,1,0,0,0,1,1,0,1,0],[0,1,1,1,1,0,0,1,0,0,0,1,0,1,1,0,1,1,0,1],[1,0,0,1,1,1,1,0,1,0,0,1,0,1,0,0,0,1,1,0],[0,1,0,1,0,1,1,0,1,0,1,1,0,1,0,0,0,0,1,0]],"displayWidth":172,"displayHeight":172,"spacing":100,"style":{"gridBorderColor":"#ffffff","gridBorderWidth":"3","dotColor":"#ffffff","dotLineWidth":"1"}},"pluginResponse":[{"startTime":29152.999999932945,"rt":3095.000000204891,"response":[{"id":0,"name":"Left","answer":55,"prompt":"Left","lastChangedTime":31013.999999966472},{"id":1,"name":"Right","answer":"50","prompt":"Right","lastChangedTime":null}],"stimulusOffTime":901.0000000707805,"trial_type":"canvas-sliders-response","trial_index":12,"time_elapsed":32006,"internal_node_id":"0.0-7.0-0.1"},{"choiceTime":0,"choice":1,"totalTime":2001.9999998621643,"image":"http://localhost:8080/ExploringSocialMetacognition/assets/image/advisor2.png","adviceTime":2001.9999998621643,"trial_type":"jspsych-jas-present-advice-choice","trial_index":13,"time_elapsed":34010,"internal_node_id":"0.0-7.0-1.1"},{"startTime":34252.000000094995,"rt":1344.9999999720603,"response":[{"id":0,"name":"Left","answer":33,"prompt":"Left","lastChangedTime":35054.99999993481},{"id":1,"name":"Right","answer":"50","prompt":"Right","lastChangedTime":null}],"trial_type":"canvas-sliders-response","trial_index":14,"time_elapsed":35356,"internal_node_id":"0.0-7.0-2.1"}],"confidenceCategory":0,"advisorAgrees":false,"advice":{"filePath":"assets/audio/voices/3/right_think.wav","string":"It was on the RIGHT, I think","loaded":true,"loading":true,"data":null,"buffer":{},"side":1,"confidence":0}},{"block":1,"advisorId":1,"choice":[],"answer":[0,0],"confidence":[75,87],"whichSide":0,"practice":true,"feedback":true,"warnings":[],"stimulusDrawTime":[36500],"stimulusOffTime":[900.9999998379499,null],"fixationDrawTime":[36000],"id":6,"dotDifference":21,"grid":{"dotCountL":221,"dotCountR":179,"gridWidth":20,"gridHeight":20,"dotWidth":2,"dotHeight":2,"paddingX":6,"paddingY":6,"gridL":[[1,0,1,0,0,0,0,1,1,0,0,1,1,0,1,1,1,0,1,1],[0,1,1,1,0,1,1,0,1,1,1,1,0,0,0,1,1,0,1,1],[1,1,1,1,0,0,0,1,1,1,1,0,0,1,0,1,0,0,0,0],[1,1,0,0,1,1,0,1,0,0,0,0,1,1,0,1,1,1,0,0],[0,1,1,0,1,0,0,1,1,0,0,1,0,1,1,1,0,1,0,1],[0,1,0,0,0,0,1,1,1,0,0,0,0,0,0,1,0,1,1,0],[1,1,1,0,1,1,0,1,0,1,1,1,1,0,1,0,1,1,1,0],[1,0,1,1,0,0,1,1,0,1,1,0,1,1,1,0,0,1,0,1],[1,1,0,1,0,1,0,1,0,1,1,0,0,0,0,1,1,1,1,0],[1,0,0,0,0,1,1,0,1,1,0,1,0,1,0,0,1,1,0,1],[1,0,1,0,0,1,1,1,1,0,1,0,1,1,1,0,1,1,1,1],[0,0,1,1,0,0,0,0,1,0,1,1,1,1,1,1,1,0,0,0],[0,1,0,0,0,0,1,0,1,1,1,1,0,1,1,0,0,1,1,1],[0,1,0,0,1,0,0,0,0,0,0,1,0,1,1,1,0,1,0,1],[0,0,1,0,0,0,1,0,1,1,0,1,1,1,1,1,0,1,1,1],[1,0,1,1,1,1,1,0,1,1,0,0,0,0,1,0,0,0,1,1],[1,1,0,1,0,0,0,1,1,0,1,1,1,1,0,1,1,0,0,0],[0,1,1,0,1,0,0,1,0,1,0,1,1,0,1,0,1,0,0,1],[0,1,1,0,0,1,0,1,1,0,0,0,1,0,1,1,1,1,1,0],[1,1,0,1,1,0,1,1,1,1,1,1,0,1,0,1,1,0,0,1]],"gridR":[[0,1,1,1,0,0,1,1,0,0,1,1,0,0,1,0,1,0,1,0],[0,1,0,1,1,1,1,1,0,1,1,0,0,1,0,0,1,1,0,0],[0,0,0,1,1,1,0,1,1,1,0,1,1,0,1,1,0,1,1,1],[1,0,1,0,0,0,1,0,0,1,0,1,0,0,1,1,1,1,0,1],[1,0,1,0,0,1,1,1,0,0,0,1,0,1,0,1,0,0,1,0],[0,0,0,0,0,1,0,0,0,0,0,0,0,0,0,1,0,0,0,0],[0,1,0,0,1,1,1,0,0,0,0,0,0,0,1,0,1,0,0,1],[1,0,1,0,0,1,0,0,0,1,1,1,0,0,1,1,1,0,1,0],[0,1,1,0,1,1,0,0,1,1,0,0,0,0,0,0,0,0,0,0],[1,0,0,0,0,1,0,0,1,0,1,1,0,1,1,0,0,0,0,0],[0,1,1,1,1,1,0,0,0,1,1,0,0,0,0,0,0,1,1,1],[0,0,1,0,0,0,0,1,0,1,1,1,1,1,1,1,0,1,0,0],[0,1,0,0,0,1,1,0,0,0,0,0,1,0,0,0,1,0,1,1],[1,1,1,0,1,0,1,0,1,0,1,1,1,1,0,1,1,1,0,0],[1,0,0,1,1,0,0,0,0,1,1,1,1,0,0,1,1,0,1,0],[0,1,0,0,1,0,1,0,1,0,1,0,1,0,0,1,0,0,1,1],[1,1,1,1,1,0,0,0,0,1,1,0,0,1,1,1,0,0,0,1],[0,1,0,1,0,0,0,0,1,1,1,0,1,1,1,0,0,0,1,0],[0,1,1,0,0,0,0,0,1,0,0,0,1,0,0,1,0,0,1,0],[0,0,0,0,0,1,0,0,1,1,0,1,0,1,1,1,0,1,0,1]],"displayWidth":172,"displayHeight":172,"spacing":100,"style":{"gridBorderColor":"#ffffff","gridBorderWidth":"3","dotColor":"#ffffff","dotLineWidth":"1"}},"pluginResponse":[{"startTime":35799.000000115484,"rt":2216.000000014901,"response":[{"id":0,"name":"Left","answer":75,"prompt":"Left","lastChangedTime":37462.00000005774},{"id":1,"name":"Right","answer":"50","prompt":"Right","lastChangedTime":null}],"stimulusOffTime":900.9999998379499,"trial_type":"canvas-sliders-response","trial_index":15,"time_elapsed":37774,"internal_node_id":"0.0-7.0-0.2"},{"choiceTime":0,"choice":1,"totalTime":2001.9999998621643,"image":"http://localhost:8080/ExploringSocialMetacognition/assets/image/advisor2.png","adviceTime":2001.9999998621643,"trial_type":"jspsych-jas-present-advice-choice","trial_index":16,"time_elapsed":39777,"internal_node_id":"0.0-7.0-1.2"},{"startTime":40019.000000087544,"rt":1510.0000000093132,"response":[{"id":0,"name":"Left","answer":87,"prompt":"Left","lastChangedTime":40883.00000014715},{"id":1,"name":"Right","answer":"50","prompt":"Right","lastChangedTime":null}],"trial_type":"canvas-sliders-response","trial_index":17,"time_elapsed":41288,"internal_node_id":"0.0-7.0-2.2"}],"confidenceCategory":2,"advisorAgrees":true,"advice":{"filePath":"assets/audio/voices/3/think_left.wav","string":"I think it was on the LEFT","loaded":true,"loading":true,"data":null,"buffer":{},"side":0,"confidence":0}},{"block":1,"advisorId":1,"choice":[],"answer":[1,1],"confidence":[55,32],"whichSide":1,"practice":true,"feedback":true,"warnings":[],"stimulusDrawTime":[42432.999999960884],"stimulusOffTime":[902.9999999329448,null],"fixationDrawTime":[41934.0000001248],"id":7,"dotDifference":18,"grid":{"dotCountL":182,"dotCountR":218,"gridWidth":20,"gridHeight":20,"dotWidth":2,"dotHeight":2,"paddingX":6,"paddingY":6,"gridL":[[1,0,1,1,0,0,0,1,0,0,1,0,1,0,1,0,0,0,0,1],[0,0,1,1,0,0,1,0,1,0,0,0,0,1,0,0,0,0,0,1],[1,1,0,1,0,0,0,0,0,0,0,1,1,1,1,0,1,0,1,0],[1,0,1,1,0,0,0,1,1,0,0,1,1,0,0,1,1,1,1,0],[1,0,0,1,1,0,0,0,0,1,0,0,1,0,1,0,0,0,1,0],[0,1,1,0,1,0,1,1,0,1,1,1,0,0,1,0,0,1,0,1],[0,1,0,1,0,1,1,1,0,1,0,1,1,0,0,0,1,0,0,1],[1,0,1,1,1,1,0,1,1,0,0,1,0,1,1,1,0,0,1,0],[0,1,1,0,0,0,0,0,1,1,0,1,0,0,1,0,1,1,1,0],[1,1,1,1,0,1,1,1,0,1,1,0,1,0,1,1,0,0,0,0],[0,0,0,0,0,1,1,0,1,1,0,0,0,0,1,0,1,1,0,0],[0,1,0,0,0,1,1,0,0,1,1,1,0,1,0,0,0,1,1,0],[1,0,1,1,0,0,1,1,1,1,1,0,1,0,1,0,1,0,0,0],[0,1,1,0,0,1,1,0,1,0,0,0,1,0,1,0,0,0,1,0],[1,1,0,0,1,1,1,0,0,0,0,0,1,1,0,0,0,0,0,0],[0,0,0,0,1,1,1,1,0,1,0,1,0,0,1,0,0,1,0,0],[0,1,1,0,1,0,1,0,0,1,1,0,1,1,0,0,1,1,1,0],[1,0,1,0,0,1,0,0,0,1,0,1,0,1,0,0,1,1,1,1],[1,0,1,0,0,1,1,1,0,1,0,1,0,0,0,0,1,1,1,0],[0,0,1,0,0,0,1,0,1,0,0,0,0,0,0,0,1,1,1,0]],"gridR":[[0,0,0,0,0,1,1,1,0,0,1,1,1,0,1,0,1,1,1,1],[0,0,1,1,1,1,1,1,1,0,1,1,0,0,0,1,0,1,1,0],[1,1,0,1,0,1,0,0,1,1,0,0,0,0,1,1,1,0,1,0],[0,1,1,0,0,0,1,1,1,1,1,0,1,1,1,0,1,0,0,0],[1,0,1,1,0,0,1,1,1,1,1,1,1,0,1,0,0,1,0,1],[0,1,0,1,0,1,0,0,0,0,0,1,0,1,1,1,0,1,0,0],[0,1,1,0,0,1,1,0,1,1,0,0,1,0,0,0,1,0,1,1],[1,1,1,1,0,1,0,1,0,1,0,1,0,0,0,1,1,1,0,1],[1,0,0,0,0,1,1,1,0,0,0,1,0,1,1,0,1,0,0,1],[0,0,0,1,0,1,1,0,1,1,1,1,0,1,1,1,0,1,0,1],[1,0,0,0,0,0,1,1,0,1,0,0,1,0,1,1,0,0,0,1],[0,0,1,1,1,0,1,0,1,1,0,1,1,0,0,1,1,1,1,0],[0,0,0,1,1,1,1,0,1,1,1,1,0,0,1,1,1,1,0,0],[0,0,0,1,0,1,0,0,1,1,1,1,0,1,1,1,1,1,0,1],[0,1,1,0,1,1,1,1,1,0,1,0,1,0,1,0,1,0,0,1],[0,1,0,0,1,0,0,1,1,1,0,1,0,1,1,0,1,0,0,0],[0,1,0,1,0,1,0,1,0,1,1,0,1,1,0,1,1,1,1,1],[0,1,0,0,0,1,0,1,1,1,1,1,1,1,1,0,1,0,0,0],[1,0,0,0,0,1,1,0,0,1,1,1,1,1,0,0,0,1,1,0],[0,1,1,0,1,0,0,1,1,0,0,1,1,1,0,1,1,0,0,1]],"displayWidth":172,"displayHeight":172,"spacing":100,"style":{"gridBorderColor":"#ffffff","gridBorderWidth":"3","dotColor":"#ffffff","dotLineWidth":"1"}},"pluginResponse":[{"startTime":41731.000000145286,"rt":2478.999999817461,"response":[{"id":0,"name":"Left","answer":50,"prompt":"Left","lastChangedTime":null},{"id":1,"name":"Right","answer":"55","prompt":"Right","lastChangedTime":43601.000000024214}],"stimulusOffTime":902.9999999329448,"trial_type":"canvas-sliders-response","trial_index":18,"time_elapsed":43969,"internal_node_id":"0.0-7.0-0.3"},{"choiceTime":0,"choice":1,"totalTime":2001.9999998621643,"image":"http://localhost:8080/ExploringSocialMetacognition/assets/image/advisor2.png","adviceTime":2001.9999998621643,"trial_type":"jspsych-jas-present-advice-choice","trial_index":19,"time_elapsed":45971,"internal_node_id":"0.0-7.0-1.3"},{"startTime":46213.999999919906,"rt":1857.0000000763685,"response":[{"id":0,"name":"Left","answer":50,"prompt":"Left","lastChangedTime":null},{"id":1,"name":"Right","answer":"32","prompt":"Right","lastChangedTime":47529.00000009686}],"trial_type":"canvas-sliders-response","trial_index":20,"time_elapsed":47830,"internal_node_id":"0.0-7.0-2.3"}],"confidenceCategory":0,"advisorAgrees":false,"advice":{"filePath":"assets/audio/voices/3/think_left.wav","string":"I think it was on the LEFT","loaded":true,"loading":true,"data":null,"buffer":{},"side":0,"confidence":0}},{"type":1,"typeName":"force","block":2,"advisorId":2,"choice":[],"answer":[0,0],"confidence":[69,29],"whichSide":0,"practice":false,"feedback":false,"warnings":[],"stimulusDrawTime":[62826.00000011735],"stimulusOffTime":[901.0000000707805,null],"fixationDrawTime":[62327.00000004843],"id":8,"dotDifference":15,"grid":{"dotCountL":215,"dotCountR":185,"gridWidth":20,"gridHeight":20,"dotWidth":2,"dotHeight":2,"paddingX":6,"paddingY":6,"gridL":[[0,1,1,1,1,1,0,0,0,0,1,1,0,0,1,0,0,1,0,0],[0,1,0,1,0,1,0,1,1,1,1,1,1,0,1,0,1,0,1,0],[0,1,0,1,1,1,1,0,1,0,0,0,1,1,0,0,0,0,0,1],[0,1,1,0,1,1,0,0,0,1,0,1,0,1,1,0,0,0,1,0],[1,0,1,1,0,1,0,1,1,0,1,0,0,1,0,0,1,1,0,1],[0,0,0,1,0,0,1,1,1,1,1,0,1,1,1,1,1,1,1,1],[0,1,1,0,0,1,1,0,1,1,1,1,1,1,0,0,1,1,0,0],[0,1,0,0,0,1,1,1,1,0,1,1,1,0,0,1,0,1,0,0],[0,0,0,0,0,1,1,0,1,0,1,1,1,0,0,1,1,1,0,1],[1,1,0,0,0,0,0,0,1,1,1,1,1,1,0,1,0,1,0,1],[1,0,0,1,1,1,0,0,1,0,1,0,0,1,0,0,1,0,1,0],[1,0,0,0,1,0,0,0,0,1,0,1,0,1,1,1,1,0,1,1],[0,1,0,0,0,0,1,1,1,0,0,1,0,0,1,0,1,1,1,1],[1,1,1,0,1,0,1,0,0,1,1,0,0,1,1,0,1,1,1,1],[0,0,0,1,0,1,1,0,0,1,1,1,0,0,0,1,0,1,0,0],[1,1,1,1,0,1,0,1,0,1,0,0,1,1,0,1,0,1,1,0],[1,0,1,1,0,0,0,0,0,1,0,0,0,1,1,1,1,0,0,0],[1,1,1,1,0,0,1,1,1,1,1,0,1,1,1,1,1,1,0,1],[0,0,0,1,0,1,1,0,0,1,1,1,1,0,0,1,0,1,0,1],[1,1,1,0,1,0,1,1,0,1,1,1,0,1,0,0,1,0,0,1]],"gridR":[[0,1,1,0,0,1,0,1,0,0,0,0,1,0,0,1,1,1,0,0],[0,1,1,1,1,1,1,1,1,0,0,0,0,1,0,0,0,0,1,1],[1,0,0,0,0,1,1,0,1,0,1,1,1,0,0,0,0,1,1,0],[0,0,0,0,1,0,0,1,0,1,1,0,1,0,1,1,0,0,1,0],[0,0,0,1,0,0,0,0,0,0,1,1,0,0,1,1,0,0,1,1],[1,0,0,1,0,1,0,0,0,1,0,0,1,1,0,0,0,1,0,0],[1,0,0,0,0,1,1,1,1,0,0,1,0,1,0,1,1,0,0,0],[1,0,1,0,0,1,0,0,1,1,1,1,0,0,0,1,0,1,1,0],[1,1,1,0,1,1,1,1,0,1,1,0,1,1,0,1,0,1,0,1],[1,1,1,0,1,1,0,0,1,0,0,0,1,0,0,0,0,0,0,1],[0,1,1,0,1,1,0,1,0,1,0,1,0,1,0,1,1,0,1,0],[1,0,1,0,0,1,0,1,1,0,1,0,0,1,0,1,1,0,1,0],[0,0,1,1,0,1,0,1,1,1,1,1,0,0,1,0,0,0,0,1],[1,0,1,1,1,1,1,0,1,0,0,1,1,0,0,1,1,0,0,1],[0,1,0,0,0,1,0,0,0,0,1,0,1,0,1,0,0,1,0,1],[0,0,1,0,1,1,1,0,1,0,0,1,0,0,0,1,1,1,1,1],[0,0,1,1,0,0,0,0,1,1,0,1,1,1,0,0,1,1,1,1],[1,1,0,1,0,1,0,0,1,0,0,1,1,1,0,1,0,1,0,1],[0,0,0,0,0,0,0,0,0,0,0,0,0,0,1,0,0,0,0,1],[0,0,1,1,0,1,0,0,1,1,0,0,1,1,1,1,0,0,0,0]],"displayWidth":172,"displayHeight":172,"spacing":100,"style":{"gridBorderColor":"#ffffff","gridBorderWidth":"3","dotColor":"#ffffff","dotLineWidth":"1"}},"pluginResponse":[{"startTime":62125.99999993108,"rt":2479.0000000502914,"response":[{"id":0,"name":"Left","answer":69,"prompt":"Left","lastChangedTime":63935.00000005588},{"id":1,"name":"Right","answer":"50","prompt":"Right","lastChangedTime":null}],"stimulusOffTime":901.0000000707805,"trial_type":"canvas-sliders-response","trial_index":26,"time_elapsed":64365,"internal_node_id":"0.0-13.0-0.0"},{"choiceTime":0,"choice":2,"totalTime":2002.9999997932464,"image":"http://localhost:8080/ExploringSocialMetacognition/assets/image/advisor3.png","adviceTime":2002.9999997932464,"trial_type":"jspsych-jas-present-advice-choice","trial_index":27,"time_elapsed":66368,"internal_node_id":"0.0-13.0-1.0"},{"startTime":66610.00000010245,"rt":1506.9999999832362,"response":[{"id":0,"name":"Left","answer":29,"prompt":"Left","lastChangedTime":67500.99999993108},{"id":1,"name":"Right","answer":"50","prompt":"Right","lastChangedTime":null}],"trial_type":"canvas-sliders-response","trial_index":28,"time_elapsed":67877,"internal_node_id":"0.0-13.0-2.0"}],"confidenceCategory":1,"advisorAgrees":false,"advice":{"filePath":"assets/audio/voices/2/right_think.wav","string":"It was on the RIGHT, I think","loaded":true,"loading":true,"data":null,"buffer":{},"side":1,"confidence":0}},{"type":2,"typeName":"choice","block":2,"advisorId":3,"choice":[3,2],"answer":[0,0],"confidence":[82,97],"whichSide":0,"practice":false,"feedback":false,"warnings":[],"stimulusDrawTime":[69019.00000008754],"stimulusOffTime":[899.9999999068677,null],"fixationDrawTime":[68520.00000001863],"id":9,"dotDifference":12,"grid":{"dotCountL":212,"dotCountR":188,"gridWidth":20,"gridHeight":20,"dotWidth":2,"dotHeight":2,"paddingX":6,"paddingY":6,"gridL":[[0,1,1,1,0,1,1,0,1,0,1,0,0,0,0,1,0,0,1,1],[1,0,0,0,1,0,1,0,0,0,0,1,0,1,1,0,0,1,0,0],[1,1,1,1,0,1,0,0,1,0,1,0,1,1,1,0,1,0,1,0],[0,1,1,0,1,1,0,1,0,1,1,1,0,0,0,0,1,1,1,1],[0,1,1,0,0,1,1,0,1,1,1,1,0,1,0,1,0,1,1,1],[0,1,0,1,1,0,1,0,0,1,0,0,1,0,0,0,0,1,1,0],[1,0,0,1,1,1,0,1,0,0,1,0,0,0,0,0,0,1,0,1],[1,0,1,1,0,1,1,1,1,1,0,1,1,1,1,1,0,0,1,0],[1,0,0,0,1,0,1,0,0,0,0,1,0,0,0,0,1,1,1,1],[1,0,0,0,1,1,0,1,0,1,0,0,1,1,0,1,0,0,0,0],[1,0,1,0,0,1,0,1,0,0,1,0,1,1,1,1,1,0,1,1],[1,1,0,0,0,0,1,1,0,0,1,0,0,1,0,1,0,1,0,0],[1,0,1,0,1,1,1,1,1,1,1,0,0,0,1,1,0,0,1,0],[0,0,1,0,1,1,0,0,1,1,1,1,0,0,1,0,1,1,1,1],[0,1,0,0,1,0,0,1,1,0,1,1,1,1,1,0,0,1,0,0],[1,1,0,1,1,1,0,1,0,1,0,0,1,1,0,1,0,1,1,0],[1,1,1,1,0,0,1,1,0,1,1,0,1,0,1,1,1,0,1,0],[1,1,1,0,0,1,1,1,1,0,0,1,1,0,0,1,1,1,1,0],[1,0,1,0,0,1,1,0,1,1,1,1,0,0,1,0,0,0,1,0],[0,1,0,1,1,1,1,1,0,0,1,0,1,1,0,0,1,0,0,0]],"gridR":[[1,0,1,0,0,0,0,1,0,0,0,0,0,0,1,1,0,0,0,0],[0,1,0,1,1,1,0,0,0,1,0,0,0,0,0,0,1,1,0,1],[0,1,1,0,0,0,1,1,1,0,1,1,1,1,0,0,0,1,0,0],[1,0,0,1,1,0,1,1,0,1,1,0,0,0,0,0,0,1,1,1],[0,1,1,1,1,0,1,0,1,0,1,1,1,0,0,0,1,0,1,1],[1,0,0,0,0,0,0,0,1,0,0,1,0,1,1,0,1,0,1,0],[0,1,0,1,1,0,1,1,0,0,1,0,1,1,1,1,0,1,0,0],[0,1,1,1,1,0,0,0,1,0,1,1,1,1,0,1,1,0,0,1],[0,0,1,0,0,0,0,1,1,0,0,0,0,0,0,0,1,0,1,1],[0,1,1,0,1,0,1,1,1,1,1,1,0,0,1,0,1,1,0,1],[1,0,1,0,0,0,0,0,1,1,1,0,1,1,0,0,1,1,0,0],[1,1,0,1,1,1,1,0,0,0,0,1,1,0,0,1,1,1,0,1],[1,1,1,0,1,0,0,0,1,0,1,1,0,1,1,0,1,0,0,0],[1,0,0,1,1,1,1,0,1,0,1,0,1,0,1,1,0,0,0,1],[0,0,0,0,1,1,1,0,1,0,1,0,0,1,1,1,0,1,0,0],[0,1,1,1,1,0,0,0,0,0,0,0,0,1,1,0,1,0,1,1],[1,0,1,1,1,0,1,0,1,1,0,0,0,1,1,0,0,0,0,1],[0,0,0,0,0,0,1,0,0,0,0,0,1,0,0,0,1,0,0,1],[0,0,0,1,1,1,1,1,1,1,1,0,1,0,1,0,1,0,0,0],[0,0,1,0,1,1,0,1,1,0,1,0,1,0,0,0,0,1,0,1]],"displayWidth":172,"displayHeight":172,"spacing":100,"style":{"gridBorderColor":"#ffffff","gridBorderWidth":"3","dotColor":"#ffffff","dotLineWidth":"1"}},"pluginResponse":[{"startTime":68319.00000013411,"rt":3480.9999999124557,"response":[{"id":0,"name":"Left","answer":82,"prompt":"Left","lastChangedTime":71179.99999993481},{"id":1,"name":"Right","answer":"50","prompt":"Right","lastChangedTime":null}],"stimulusOffTime":899.9999999068677,"trial_type":"canvas-sliders-response","trial_index":29,"time_elapsed":71558,"internal_node_id":"0.0-13.0-0.1"},{"choiceTime":972.0000000670552,"choice":3,"totalTime":2974.00000016205,"image":"http://localhost:8080/ExploringSocialMetacognition/assets/image/advisor1.png","adviceTime":2002.000000094995,"trial_type":"jspsych-jas-present-advice-choice","trial_index":30,"time_elapsed":74533,"internal_node_id":"0.0-13.0-1.1"},{"startTime":74777.00000000186,"rt":1628.9999999571592,"response":[{"id":0,"name":"Left","answer":97,"prompt":"Left","lastChangedTime":75810.99999998696},{"id":1,"name":"Right","answer":"50","prompt":"Right","lastChangedTime":null}],"trial_type":"canvas-sliders-response","trial_index":31,"time_elapsed":76165,"internal_node_id":"0.0-13.0-2.1"}],"confidenceCategory":2,"advisorAgrees":true,"advice":{"filePath":"assets/audio/voices/1/left_think.wav","string":"It was on the LEFT, I think","loaded":true,"loading":true,"data":null,"buffer":{},"side":0,"confidence":0}},{"type":1,"typeName":"force","block":2,"advisorId":3,"choice":[],"answer":[1,1],"confidence":[50,68],"whichSide":1,"practice":false,"feedback":false,"warnings":[],"stimulusDrawTime":[77307.99999996088],"stimulusOffTime":[901.0000000707805,null],"fixationDrawTime":[76807.99999996088],"id":10,"dotDifference":9,"grid":{"dotCountL":191,"dotCountR":209,"gridWidth":20,"gridHeight":20,"dotWidth":2,"dotHeight":2,"paddingX":6,"paddingY":6,"gridL":[[0,1,0,1,0,1,0,1,1,1,1,1,0,1,1,1,1,0,0,0],[1,0,1,0,1,0,0,1,0,0,1,0,0,1,1,0,1,1,0,1],[0,1,1,0,1,1,0,1,0,0,1,0,1,1,0,0,0,1,0,0],[0,1,1,0,1,1,0,1,1,1,0,1,0,1,1,0,0,0,1,0],[1,1,0,0,1,1,0,0,1,1,0,0,0,1,1,1,0,0,1,1],[1,1,1,1,0,0,0,0,0,1,0,1,1,1,1,1,1,1,1,0],[1,0,1,1,1,0,0,0,0,1,0,0,0,1,0,0,0,0,0,0],[0,0,1,0,0,0,0,1,1,1,0,0,0,0,0,1,1,1,0,1],[1,0,0,0,0,0,1,1,1,1,0,1,0,1,1,0,0,1,1,1],[0,1,1,0,1,0,0,0,0,0,0,0,1,0,0,1,1,0,1,0],[1,0,1,0,0,0,0,0,0,0,1,0,0,1,0,0,0,0,0,1],[1,1,1,0,0,0,0,0,0,0,1,0,1,0,1,0,1,0,0,1],[1,0,1,0,1,1,0,1,0,0,0,0,0,0,0,1,1,0,0,0],[0,0,1,1,0,0,1,1,0,1,1,0,0,0,1,0,0,0,1,1],[1,1,0,1,1,0,0,1,0,1,0,0,0,0,0,1,1,0,1,1],[1,0,0,1,0,0,0,1,0,1,1,1,1,1,1,0,1,1,0,1],[0,1,1,1,0,1,1,0,0,1,1,1,1,1,1,1,0,1,0,0],[0,1,0,0,1,1,1,0,1,1,0,0,1,0,0,0,1,1,1,0],[0,0,0,0,1,0,0,1,1,1,1,0,0,1,1,1,1,0,0,0],[0,1,0,1,0,0,0,1,0,0,1,0,1,0,1,1,1,1,1,0]],"gridR":[[1,1,1,1,0,0,0,0,0,1,1,1,0,1,0,0,1,1,1,0],[1,0,1,0,1,1,1,1,0,1,1,0,1,0,0,0,0,1,1,0],[1,0,0,1,1,1,1,1,0,1,0,0,1,1,1,0,1,1,1,0],[1,1,0,0,1,1,1,1,0,1,0,0,0,0,1,0,0,0,1,0],[0,0,0,0,1,1,0,1,0,1,1,0,0,1,0,1,1,0,0,1],[0,1,0,1,0,0,0,1,1,0,0,0,0,1,0,0,1,0,0,0],[1,1,1,0,0,0,1,1,0,1,1,0,0,0,1,0,0,0,0,1],[0,0,1,1,0,0,1,1,1,0,1,0,0,0,0,1,0,1,1,1],[1,0,0,0,1,0,0,0,0,0,1,1,0,0,0,0,1,1,1,0],[0,1,1,1,1,0,0,0,1,0,0,1,1,1,1,1,1,0,1,0],[1,0,0,0,1,1,1,1,1,0,1,0,0,1,1,0,1,0,1,0],[0,0,1,1,1,1,0,0,0,1,0,0,1,1,0,1,1,1,0,0],[0,1,0,1,0,0,0,1,0,0,1,0,1,0,0,0,1,1,0,1],[1,0,1,0,1,0,1,1,1,0,1,1,0,0,1,1,0,0,1,1],[1,0,1,0,0,1,1,0,0,1,1,1,1,1,1,0,0,1,0,1],[1,1,1,1,0,1,0,0,0,1,1,1,0,1,1,0,0,1,1,1],[1,1,0,0,1,1,0,1,1,0,1,0,0,1,1,0,1,1,0,1],[0,1,1,1,1,0,0,1,0,1,0,0,0,1,1,1,1,0,0,0],[0,1,0,1,0,0,1,0,1,0,0,1,0,0,1,0,1,1,0,0],[1,1,1,1,0,1,0,1,1,1,1,1,1,1,1,0,1,0,1,1]],"displayWidth":172,"displayHeight":172,"spacing":100,"style":{"gridBorderColor":"#ffffff","gridBorderWidth":"3","dotColor":"#ffffff","dotLineWidth":"1"}},"pluginResponse":[{"startTime":76608.00000000745,"rt":2422.999999951571,"response":[{"id":0,"name":"Left","answer":50,"prompt":"Left","lastChangedTime":null},{"id":1,"name":"Right","answer":"50","prompt":"Right","lastChangedTime":78473.99999992922}],"stimulusOffTime":901.0000000707805,"trial_type":"canvas-sliders-response","trial_index":32,"time_elapsed":78789,"internal_node_id":"0.0-13.0-0.2"},{"choiceTime":0,"choice":3,"totalTime":2003.000000026077,"image":"http://localhost:8080/ExploringSocialMetacognition/assets/image/advisor1.png","adviceTime":2003.000000026077,"trial_type":"jspsych-jas-present-advice-choice","trial_index":33,"time_elapsed":80793,"internal_node_id":"0.0-13.0-1.2"},{"startTime":81035.00000014901,"rt":1240.999999921769,"response":[{"id":0,"name":"Left","answer":50,"prompt":"Left","lastChangedTime":null},{"id":1,"name":"Right","answer":"68","prompt":"Right","lastChangedTime":81692.00000003912}],"trial_type":"canvas-sliders-response","trial_index":34,"time_elapsed":82035,"internal_node_id":"0.0-13.0-2.2"}],"confidenceCategory":0,"advisorAgrees":true,"advice":{"filePath":"assets/audio/voices/1/think_right.wav","string":"I think it was on the RIGHT","loaded":true,"loading":true,"data":null,"buffer":{},"side":1,"confidence":0}},{"type":1,"typeName":"force","block":2,"advisorId":2,"choice":[],"answer":[0,0],"confidence":[42,63],"whichSide":0,"practice":false,"feedback":false,"warnings":[],"stimulusDrawTime":[83178.00000007264],"stimulusOffTime":[899.9999999068677,null],"fixationDrawTime":[82678.00000007264],"id":11,"dotDifference":6,"grid":{"dotCountL":206,"dotCountR":194,"gridWidth":20,"gridHeight":20,"dotWidth":2,"dotHeight":2,"paddingX":6,"paddingY":6,"gridL":[[0,1,1,0,1,1,0,0,0,1,0,1,1,1,0,0,1,0,0,1],[1,0,1,1,0,0,0,0,0,0,0,1,1,0,1,0,1,1,0,0],[1,0,1,1,0,1,0,1,1,1,0,1,1,0,0,1,1,1,1,1],[0,0,1,0,0,1,0,1,1,0,0,1,1,0,0,0,1,0,1,1],[0,0,1,1,0,0,0,0,1,0,1,0,0,1,1,0,1,0,0,1],[1,1,1,1,0,1,0,1,1,1,1,0,1,1,1,0,0,1,0,0],[1,1,1,1,0,1,1,1,0,1,1,0,1,0,1,0,0,1,0,1],[1,0,0,1,0,0,1,1,1,0,1,1,0,0,1,1,1,1,1,0],[0,0,0,1,1,1,1,0,1,1,1,0,0,0,1,0,1,1,1,0],[0,0,1,0,1,1,1,1,0,1,0,1,0,1,0,0,1,0,1,0],[1,0,1,0,1,1,1,0,1,0,1,1,0,0,0,0,0,0,0,0],[1,1,0,0,1,0,1,0,0,0,0,0,1,0,1,1,1,0,0,0],[0,0,0,1,0,1,1,1,0,0,0,0,0,0,0,1,1,1,1,0],[0,0,0,1,0,0,1,0,1,0,0,1,1,0,1,0,1,1,1,1],[0,0,1,0,1,0,1,0,1,0,0,1,1,1,1,1,0,0,1,1],[0,0,0,0,1,0,1,0,0,0,0,0,1,0,0,1,1,1,1,1],[0,1,0,1,0,0,0,1,0,1,1,0,0,0,1,0,1,1,0,0],[0,1,1,1,1,1,1,1,1,0,1,0,1,0,1,0,0,1,1,0],[1,1,0,1,1,0,0,1,1,1,1,0,0,0,1,1,1,1,1,1],[0,0,0,0,1,0,1,1,0,0,0,1,0,1,1,1,1,1,0,1]],"gridR":[[0,1,0,0,0,0,1,0,0,0,0,0,0,0,0,0,0,0,1,0],[0,1,0,0,0,0,0,0,1,0,1,1,1,0,1,1,0,1,0,1],[0,0,0,0,0,1,1,1,0,1,0,1,1,1,0,1,0,0,1,1],[0,1,0,1,0,0,1,0,0,1,1,1,1,1,0,0,0,0,1,1],[1,1,1,1,1,0,0,1,0,1,1,1,0,1,1,1,1,1,1,0],[1,1,0,0,0,1,1,0,0,1,0,0,1,0,0,0,1,1,1,1],[0,1,0,0,0,1,0,0,1,0,0,0,0,1,1,0,0,0,1,1],[0,1,0,1,0,0,0,1,1,1,1,1,0,1,0,0,1,1,0,1],[0,1,0,0,1,1,1,0,0,0,1,0,1,0,1,0,1,1,1,1],[0,1,1,1,0,0,1,1,0,1,0,1,1,0,0,0,0,0,0,1],[1,0,1,0,0,0,1,1,1,0,1,1,0,0,0,1,1,0,0,1],[1,1,0,0,0,1,0,0,0,1,0,1,1,1,1,0,0,0,0,0],[1,0,1,1,1,0,1,0,0,0,1,0,1,1,0,0,0,1,0,0],[0,1,1,0,1,0,0,1,0,0,0,1,0,1,1,1,0,1,1,0],[1,0,1,1,0,0,0,0,0,0,1,1,0,0,0,0,0,1,1,1],[1,1,0,1,1,1,1,0,0,0,0,1,0,0,1,0,0,0,0,1],[1,0,1,1,1,1,0,1,0,1,0,1,0,1,1,0,0,0,0,1],[0,1,0,0,0,1,1,0,0,1,1,0,1,0,1,0,1,1,0,1],[0,1,1,1,0,1,1,1,1,1,0,0,1,0,1,1,1,0,0,0],[1,1,0,1,1,0,1,1,1,1,0,1,1,1,0,0,1,0,0,0]],"displayWidth":172,"displayHeight":172,"spacing":100,"style":{"gridBorderColor":"#ffffff","gridBorderWidth":"3","dotColor":"#ffffff","dotLineWidth":"1"}},"pluginResponse":[{"startTime":82478.00000011921,"rt":2221.9999998342246,"response":[{"id":0,"name":"Left","answer":42,"prompt":"Left","lastChangedTime":84144.00000008754},{"id":1,"name":"Right","answer":"50","prompt":"Right","lastChangedTime":null}],"stimulusOffTime":899.9999999068677,"trial_type":"canvas-sliders-response","trial_index":35,"time_elapsed":84458,"internal_node_id":"0.0-13.0-0.3"},{"choiceTime":0,"choice":2,"totalTime":2001.9999998621643,"image":"http://localhost:8080/ExploringSocialMetacognition/assets/image/advisor3.png","adviceTime":2001.9999998621643,"trial_type":"jspsych-jas-present-advice-choice","trial_index":36,"time_elapsed":86462,"internal_node_id":"0.0-13.0-1.3"},{"startTime":86704.00000014342,"rt":1504.9999998882413,"response":[{"id":0,"name":"Left","answer":63,"prompt":"Left","lastChangedTime":87425.00000004657},{"id":1,"name":"Right","answer":"50","prompt":"Right","lastChangedTime":null}],"trial_type":"canvas-sliders-response","trial_index":37,"time_elapsed":87968,"internal_node_id":"0.0-13.0-2.3"}],"confidenceCategory":0,"advisorAgrees":true,"advice":{"filePath":"assets/audio/voices/2/think_left.wav","string":"I think it was on the LEFT","loaded":true,"loading":true,"data":null,"buffer":{},"side":0,"confidence":0}},{"type":2,"typeName":"choice","block":2,"advisorId":2,"choice":[3,2],"answer":[1,1],"confidence":[26,12],"whichSide":0,"practice":false,"feedback":false,"warnings":[],"stimulusDrawTime":[89111.00000003353],"stimulusOffTime":[900.9999998379499,null],"fixationDrawTime":[88611.00000003353],"id":12,"dotDifference":3,"grid":{"dotCountL":203,"dotCountR":197,"gridWidth":20,"gridHeight":20,"dotWidth":2,"dotHeight":2,"paddingX":6,"paddingY":6,"gridL":[[0,1,1,0,0,1,0,1,0,1,0,0,0,0,0,0,0,1,1,0],[1,1,0,1,0,0,1,0,1,1,0,0,1,0,1,0,0,0,1,1],[0,0,0,0,1,0,1,1,1,0,0,1,0,0,1,0,0,1,0,1],[1,0,0,0,0,0,0,1,0,0,1,1,1,1,1,1,1,0,1,0],[0,0,1,0,1,0,1,0,0,0,0,0,0,0,1,0,1,1,1,1],[0,1,0,0,1,0,1,0,1,0,0,0,0,0,0,0,1,1,0,1],[1,0,0,1,0,0,1,1,1,1,1,1,1,0,0,0,0,1,1,0],[1,1,1,0,1,1,1,0,0,1,1,1,1,1,1,1,0,0,1,0],[1,0,1,0,1,0,1,0,0,1,0,1,1,0,0,1,1,0,1,0],[1,1,0,0,1,1,0,1,1,1,1,1,1,0,1,1,1,0,0,1],[1,0,0,1,0,0,1,0,0,1,1,0,0,0,1,1,1,0,0,1],[0,1,1,0,1,1,1,1,1,0,1,0,1,0,0,1,1,1,0,1],[0,0,1,1,0,0,1,0,0,1,0,0,1,1,1,1,1,1,0,1],[1,0,1,1,1,0,0,0,0,1,0,1,0,0,1,1,0,1,1,0],[0,0,1,0,0,1,1,1,0,0,1,1,0,0,1,1,1,0,1,0],[0,1,0,0,0,0,1,1,0,1,0,0,0,0,1,1,0,1,0,1],[1,0,0,0,1,1,1,1,0,0,1,1,1,0,0,1,1,1,1,0],[0,1,1,1,0,1,0,1,0,0,1,0,0,1,0,0,1,1,0,0],[0,1,1,1,1,1,0,0,1,1,0,0,1,1,0,0,1,1,0,1],[1,0,0,0,0,0,0,0,1,0,1,1,1,1,0,0,1,1,1,1]],"gridR":[[1,1,0,0,1,0,1,0,0,0,1,0,0,1,1,0,1,1,0,1],[0,0,1,0,1,0,1,0,1,1,1,1,1,0,1,1,1,0,1,1],[0,0,1,1,0,1,0,0,0,0,1,0,0,1,1,1,1,0,1,1],[0,0,0,0,0,0,1,1,1,0,1,0,0,1,1,1,0,0,0,1],[1,1,1,0,0,1,1,0,0,1,1,0,1,1,0,0,1,0,1,0],[1,1,1,1,0,0,1,0,0,1,0,0,0,1,0,0,0,0,1,1],[1,0,0,0,0,0,0,0,1,1,0,1,0,0,1,0,1,1,1,0],[0,0,1,0,0,1,1,0,1,1,1,1,0,0,0,0,0,0,0,0],[1,1,1,0,0,1,0,0,0,0,0,0,1,1,1,0,1,0,0,0],[0,0,0,1,0,1,0,1,1,1,1,0,0,0,0,0,0,0,0,0],[1,1,0,0,1,1,0,0,0,0,0,0,0,1,1,0,1,0,0,0],[0,1,1,0,0,1,1,0,1,0,1,1,0,0,1,0,1,1,1,0],[1,0,0,0,1,1,1,0,0,1,1,0,0,1,1,0,0,0,1,0],[0,0,1,0,1,0,0,0,0,0,1,1,1,1,0,0,0,0,0,0],[1,1,1,1,0,1,1,0,1,1,1,1,0,0,1,0,1,1,0,1],[0,1,1,1,1,0,1,1,0,1,1,1,0,1,1,1,1,0,1,0],[1,1,0,1,0,1,1,1,1,1,1,0,1,1,0,1,1,0,0,0],[1,1,0,0,0,1,0,1,1,1,0,0,1,1,0,1,0,1,1,0],[1,1,0,1,0,1,1,1,1,1,1,0,0,0,0,0,1,0,1,0],[1,0,0,1,1,0,1,1,0,1,1,0,1,0,0,1,0,1,1,0]],"displayWidth":172,"displayHeight":172,"spacing":100,"style":{"gridBorderColor":"#ffffff","gridBorderWidth":"3","dotColor":"#ffffff","dotLineWidth":"1"}},"pluginResponse":[{"startTime":88411.0000000801,"rt":2525.99999983795,"response":[{"id":0,"name":"Left","answer":50,"prompt":"Left","lastChangedTime":null},{"id":1,"name":"Right","answer":"26","prompt":"Right","lastChangedTime":90370.00000011176}],"stimulusOffTime":900.9999998379499,"trial_type":"canvas-sliders-response","trial_index":38,"time_elapsed":90696,"internal_node_id":"0.0-13.0-0.4"},{"choiceTime":766.0000000614673,"choice":2,"totalTime":2767.9999999236315,"image":"http://localhost:8080/ExploringSocialMetacognition/assets/image/advisor3.png","adviceTime":2001.9999998621643,"trial_type":"jspsych-jas-present-advice-choice","trial_index":39,"time_elapsed":93465,"internal_node_id":"0.0-13.0-1.4"},{"startTime":93709.00000003166,"rt":2078.999999910593,"response":[{"id":0,"name":"Left","answer":50,"prompt":"Left","lastChangedTime":null},{"id":1,"name":"Right","answer":"12","prompt":"Right","lastChangedTime":94820.00000006519}],"trial_type":"canvas-sliders-response","trial_index":40,"time_elapsed":95546,"internal_node_id":"0.0-13.0-2.4"}],"confidenceCategory":0,"advisorAgrees":true,"advice":{"filePath":"assets/audio/voices/2/left_think.wav","string":"It was on the LEFT, I think","loaded":true,"loading":true,"data":null,"buffer":{},"side":0,"confidence":0}},{"type":1,"typeName":"force","block":2,"advisorId":2,"choice":[],"answer":[0,0],"confidence":[17,2],"whichSide":0,"practice":false,"feedback":false,"warnings":[],"stimulusDrawTime":[96689.00000001304],"stimulusOffTime":[899.9999999068677,null],"fixationDrawTime":[96189.00000001304],"id":13,"dotDifference":6,"grid":{"dotCountL":206,"dotCountR":194,"gridWidth":20,"gridHeight":20,"dotWidth":2,"dotHeight":2,"paddingX":6,"paddingY":6,"gridL":[[0,0,1,1,0,1,1,1,0,1,1,1,0,0,1,1,1,1,0,0],[1,0,1,1,0,1,0,1,1,0,1,1,0,1,0,0,0,0,1,0],[0,1,0,1,1,1,0,1,1,0,1,0,1,0,1,0,1,0,0,1],[1,0,1,0,1,0,0,1,1,1,0,0,0,1,0,1,1,0,1,0],[1,0,0,1,0,0,1,0,0,0,1,0,1,1,0,0,1,1,1,0],[0,1,1,1,0,0,1,0,0,1,1,1,0,1,1,0,0,0,1,0],[0,0,1,1,1,1,0,1,0,0,0,1,1,0,1,1,0,0,1,0],[0,0,1,0,0,1,1,0,1,0,0,1,1,1,1,1,0,1,1,0],[0,1,0,0,1,0,1,0,0,0,0,0,1,0,0,0,0,1,0,1],[1,1,1,0,1,0,0,1,1,1,1,0,0,1,1,1,0,1,1,0],[1,1,0,0,0,0,0,0,1,0,1,0,0,0,1,1,1,0,1,0],[1,0,0,1,1,1,1,1,1,0,0,0,0,1,1,1,0,0,0,1],[1,1,1,1,1,0,0,0,0,1,0,1,1,1,1,1,1,0,1,1],[1,0,0,0,1,1,1,1,0,0,1,0,1,1,0,1,1,0,0,1],[0,0,1,0,1,0,0,0,0,0,0,0,1,1,1,0,1,1,0,1],[1,1,1,0,1,0,1,0,0,0,1,1,0,1,0,1,0,0,0,1],[0,1,0,1,0,1,0,0,1,1,0,1,1,0,1,1,0,1,1,1],[0,1,0,1,1,1,1,1,1,1,1,1,0,1,0,0,0,1,0,1],[1,1,1,0,1,0,1,1,1,0,0,1,1,0,0,0,1,0,0,1],[1,0,1,0,1,0,0,1,0,0,1,0,0,0,0,0,0,1,0,0]],"gridR":[[1,0,0,0,1,0,0,0,0,1,0,0,1,0,1,0,0,1,1,1],[1,0,0,1,0,0,1,1,0,1,1,1,0,1,1,0,0,1,1,0],[1,0,1,0,0,1,0,0,0,0,1,1,0,1,0,0,0,0,0,1],[0,0,1,1,1,1,0,0,1,0,0,0,1,0,0,0,0,1,0,1],[0,0,1,1,0,1,1,1,0,0,0,1,0,0,0,0,0,1,1,1],[0,0,0,0,1,1,1,1,0,1,0,1,1,1,0,0,1,1,1,1],[1,0,0,1,0,0,1,1,1,0,1,0,0,0,1,0,0,1,1,1],[1,1,1,1,1,1,1,1,0,0,1,0,1,1,0,0,1,0,1,0],[0,1,0,0,1,1,0,0,1,0,0,0,1,0,1,1,1,0,0,0],[0,1,0,0,1,1,0,0,1,0,1,1,0,1,1,1,1,1,1,0],[1,0,0,1,0,0,1,0,0,1,1,1,0,0,0,0,1,1,0,1],[1,1,0,0,1,0,0,1,1,1,1,0,0,0,1,1,0,1,1,1],[1,0,1,1,1,0,0,0,0,0,1,1,0,1,0,1,0,1,0,0],[1,0,0,1,0,0,0,0,1,0,0,1,1,1,0,0,0,0,0,1],[1,0,1,0,0,0,1,1,1,1,1,1,1,1,0,0,1,1,1,0],[1,1,0,1,1,1,1,1,0,1,0,1,1,0,0,1,1,0,0,0],[0,0,0,1,1,0,0,0,0,0,0,1,0,0,0,1,1,0,1,1],[0,0,0,0,0,1,1,1,1,0,0,1,0,1,1,0,0,0,1,1],[1,0,1,1,0,0,0,0,1,1,1,1,0,0,1,0,0,0,0,0],[1,0,0,1,1,1,1,0,1,0,0,0,0,0,1,1,1,0,1,0]],"displayWidth":172,"displayHeight":172,"spacing":100,"style":{"gridBorderColor":"#ffffff","gridBorderWidth":"3","dotColor":"#ffffff","dotLineWidth":"1"}},"pluginResponse":[{"startTime":95989.0000000596,"rt":2450.999999884516,"response":[{"id":0,"name":"Left","answer":17,"prompt":"Left","lastChangedTime":97620.00000011176},{"id":1,"name":"Right","answer":"50","prompt":"Right","lastChangedTime":null}],"stimulusOffTime":899.9999999068677,"trial_type":"canvas-sliders-response","trial_index":41,"time_elapsed":98198,"internal_node_id":"0.0-13.0-0.5"},{"choiceTime":0,"choice":2,"totalTime":2001.9999998621643,"image":"http://localhost:8080/ExploringSocialMetacognition/assets/image/advisor3.png","adviceTime":2001.9999998621643,"trial_type":"jspsych-jas-present-advice-choice","trial_index":42,"time_elapsed":100202,"internal_node_id":"0.0-13.0-1.5"},{"startTime":100444.00000013411,"rt":1260.9999999403954,"response":[{"id":0,"name":"Left","answer":2,"prompt":"Left","lastChangedTime":101120.00000011176},{"id":1,"name":"Right","answer":"50","prompt":"Right","lastChangedTime":null}],"trial_type":"canvas-sliders-response","trial_index":43,"time_elapsed":101463,"internal_node_id":"0.0-13.0-2.5"}],"confidenceCategory":0,"advisorAgrees":false,"advice":{"filePath":"assets/audio/voices/2/think_right.wav","string":"I think it was on the RIGHT","loaded":true,"loading":true,"data":null,"buffer":{},"side":1,"confidence":0}},{"type":2,"typeName":"choice","block":2,"advisorId":2,"choice":[2,3],"answer":[0,0],"confidence":[58,50],"whichSide":1,"practice":false,"feedback":false,"warnings":[],"stimulusDrawTime":[102606.00000014529],"stimulusOffTime":[901.0000000707805,null],"fixationDrawTime":[102106.00000014529],"id":14,"dotDifference":6,"grid":{"dotCountL":194,"dotCountR":206,"gridWidth":20,"gridHeight":20,"dotWidth":2,"dotHeight":2,"paddingX":6,"paddingY":6,"gridL":[[1,1,0,1,0,0,1,1,0,0,1,1,1,0,0,1,0,1,0,1],[0,1,1,1,0,1,0,0,1,0,0,0,1,0,0,0,1,0,0,1],[1,1,1,0,1,1,1,1,1,1,0,1,0,0,1,1,1,0,0,1],[1,1,0,0,0,0,1,0,1,0,0,1,0,1,1,1,0,0,0,1],[1,0,1,0,0,0,0,0,1,0,0,1,1,0,1,1,1,0,0,1],[0,1,0,0,0,0,1,1,0,1,1,1,1,1,0,1,1,0,0,0],[0,0,1,0,1,0,1,0,0,0,0,1,0,1,0,0,0,0,0,0],[0,0,1,0,1,0,1,1,1,0,1,0,0,0,1,0,1,0,1,1],[1,1,0,1,0,0,1,1,0,0,0,0,1,1,1,1,1,0,1,1],[1,0,0,0,0,0,1,0,1,1,1,0,0,0,0,1,1,0,1,0],[1,0,0,0,1,0,1,1,0,1,0,1,0,0,0,0,0,1,1,0],[0,0,1,0,0,1,0,1,0,0,1,0,0,1,1,0,0,0,1,1],[0,1,1,0,1,0,0,0,1,1,1,1,0,1,1,1,1,0,0,1],[0,1,1,1,0,0,0,0,0,0,1,0,1,0,0,1,1,0,1,0],[1,1,0,0,1,1,1,1,0,0,0,0,0,1,1,0,1,0,1,1],[0,1,1,0,0,0,0,1,0,0,0,1,0,0,1,0,1,0,0,1],[1,1,1,0,0,1,1,1,0,1,0,0,1,0,1,1,1,0,1,0],[1,0,0,1,0,1,1,1,1,0,1,1,1,0,1,1,0,0,0,1],[1,0,0,1,1,0,1,0,0,1,1,0,0,1,1,0,1,1,0,1],[1,0,0,0,1,1,0,1,0,1,1,1,0,0,1,0,1,0,0,0]],"gridR":[[1,0,1,1,0,0,1,0,1,1,1,0,0,1,0,1,0,1,0,1],[0,0,0,0,0,0,0,0,1,1,1,1,1,1,1,1,1,1,1,0],[0,1,0,1,0,0,0,1,0,1,1,0,1,1,1,1,0,1,0,0],[1,1,1,0,0,0,0,1,1,0,1,1,1,0,1,0,1,1,1,1],[1,1,1,0,1,0,1,1,1,0,1,1,1,0,1,0,0,1,0,1],[1,0,0,1,1,1,1,1,0,0,0,1,1,1,0,0,0,0,0,0],[1,0,0,0,1,0,1,0,0,1,0,0,0,1,1,0,1,1,1,0],[0,1,0,0,1,0,0,0,1,1,0,1,0,0,1,0,1,1,1,0],[0,1,0,1,1,1,1,0,1,0,0,1,0,0,0,0,0,0,0,1],[0,1,0,1,0,1,1,0,1,1,1,1,0,1,0,1,0,0,1,0],[0,1,0,1,1,0,1,1,0,0,0,1,1,1,1,1,1,0,1,0],[0,0,1,0,1,1,0,0,0,0,1,1,0,0,0,1,1,0,1,1],[1,0,0,0,1,0,0,1,0,1,0,0,0,1,1,1,1,0,1,1],[0,1,0,1,1,1,0,0,1,1,0,0,1,1,0,1,1,1,0,0],[1,1,0,1,0,1,0,1,1,1,1,1,0,1,0,0,1,0,1,0],[1,0,1,1,1,1,1,0,0,1,0,0,0,1,1,0,1,1,0,1],[1,1,1,1,0,0,1,0,0,0,1,1,1,0,1,0,1,1,1,0],[0,1,0,0,0,1,1,0,1,0,0,0,0,0,1,0,1,0,0,0],[0,1,1,1,0,1,1,1,0,0,0,1,0,1,1,0,0,0,0,0],[1,0,1,0,0,0,0,0,0,1,1,0,1,0,1,1,1,0,1,0]],"displayWidth":172,"displayHeight":172,"spacing":100,"style":{"gridBorderColor":"#ffffff","gridBorderWidth":"3","dotColor":"#ffffff","dotLineWidth":"1"}},"pluginResponse":[{"startTime":101905.99999995902,"rt":2636.000000173226,"response":[{"id":0,"name":"Left","answer":58,"prompt":"Left","lastChangedTime":103645.00000001863},{"id":1,"name":"Right","answer":"50","prompt":"Right","lastChangedTime":null}],"stimulusOffTime":901.0000000707805,"trial_type":"canvas-sliders-response","trial_index":44,"time_elapsed":104302,"internal_node_id":"0.0-13.0-0.6"},{"choiceTime":1051.9999999087304,"choice":2,"totalTime":3054.0000000037253,"image":"http://localhost:8080/ExploringSocialMetacognition/assets/image/advisor3.png","adviceTime":2002.000000094995,"trial_type":"jspsych-jas-present-advice-choice","trial_index":45,"time_elapsed":107355,"internal_node_id":"0.0-13.0-1.6"},{"startTime":107597.99999999814,"rt":1312.0000001508743,"response":[{"id":0,"name":"Left","answer":50,"prompt":"Left","lastChangedTime":108371.00000004284},{"id":1,"name":"Right","answer":"50","prompt":"Right","lastChangedTime":null}],"trial_type":"canvas-sliders-response","trial_index":46,"time_elapsed":108670,"internal_node_id":"0.0-13.0-2.6"}],"confidenceCategory":1,"advisorAgrees":true,"advice":{"filePath":"assets/audio/voices/2/right_think.wav","string":"It was on the RIGHT, I think","loaded":true,"loading":true,"data":null,"buffer":{},"side":1,"confidence":0}},{"type":1,"typeName":"force","block":2,"advisorId":3,"choice":[],"answer":[0,0],"confidence":[76,94],"whichSide":1,"practice":false,"feedback":false,"warnings":[],"stimulusDrawTime":[109811.99999991804],"stimulusOffTime":[902.0000000018626,null],"fixationDrawTime":[109311.99999991804],"id":15,"dotDifference":9,"grid":{"dotCountL":191,"dotCountR":209,"gridWidth":20,"gridHeight":20,"dotWidth":2,"dotHeight":2,"paddingX":6,"paddingY":6,"gridL":[[0,0,1,1,1,0,0,1,1,1,1,0,1,1,0,1,0,0,1,0],[1,1,1,0,0,1,0,0,1,0,0,1,0,1,1,1,1,1,0,0],[0,0,1,1,1,1,1,1,1,0,1,1,0,1,1,0,1,0,1,0],[0,1,0,0,0,1,1,0,1,0,0,1,1,1,1,0,1,1,0,1],[1,0,0,0,1,0,1,1,1,0,0,1,0,1,0,1,0,0,1,0],[1,0,0,0,0,0,0,0,0,0,1,1,1,1,1,0,0,0,0,0],[1,0,0,0,1,0,0,0,0,1,0,0,0,1,0,0,1,1,0,0],[0,0,1,0,0,0,1,0,0,0,1,0,0,0,0,0,1,1,1,0],[1,1,1,0,0,1,1,0,1,0,1,1,1,0,0,0,1,1,0,0],[0,1,0,0,1,0,0,0,1,0,1,0,1,0,1,1,0,0,0,0],[0,0,0,1,0,1,1,0,1,0,1,1,1,1,0,1,0,0,1,1],[0,0,1,1,1,1,1,1,1,1,1,0,1,1,1,1,0,0,0,1],[1,1,1,1,1,1,0,1,0,1,0,1,0,1,0,0,1,1,0,0],[1,1,1,0,0,1,0,1,0,1,1,0,1,0,0,0,0,0,0,0],[1,0,1,1,0,0,0,1,1,1,0,0,0,1,0,1,1,1,0,0],[1,1,1,1,0,1,0,1,1,1,0,0,1,0,0,0,1,1,0,0],[0,0,0,1,1,1,1,0,1,1,1,1,0,0,0,0,0,0,1,1],[1,1,0,0,1,0,0,1,1,1,0,1,0,1,0,0,0,1,0,0],[1,0,0,1,0,0,0,1,0,0,1,0,1,0,1,0,1,0,1,0],[0,1,0,0,1,1,0,0,0,1,1,0,1,0,1,0,0,0,0,0]],"gridR":[[1,0,1,1,0,1,0,1,0,1,1,1,0,0,1,1,1,1,1,1],[1,1,0,1,1,1,1,0,1,0,0,1,1,0,0,0,0,0,0,1],[1,1,1,1,1,1,1,0,1,0,0,0,1,0,1,0,0,1,1,0],[0,0,1,0,0,0,0,1,1,0,0,0,0,0,1,0,0,0,0,0],[0,1,1,1,0,0,0,1,1,0,1,1,0,1,1,0,0,1,1,1],[0,1,1,1,1,0,1,0,0,1,0,1,1,1,0,0,1,0,1,1],[1,0,0,1,1,0,1,0,1,0,1,1,1,1,1,0,0,0,0,1],[0,1,0,1,1,1,1,0,1,1,1,0,0,1,0,0,0,0,1,0],[0,1,1,0,1,1,0,1,0,1,0,1,0,1,1,1,1,0,0,1],[1,0,1,1,1,0,0,0,1,1,0,0,0,0,0,1,1,1,1,1],[0,1,1,1,1,1,0,1,1,0,0,0,0,1,1,0,0,1,0,0],[1,0,0,0,1,0,1,0,0,1,1,0,1,1,0,0,0,0,0,0],[0,0,1,1,0,0,0,1,1,1,0,0,0,1,1,0,1,0,0,1],[1,0,1,0,0,0,0,1,1,0,1,0,0,0,0,1,1,0,0,0],[0,1,1,0,1,0,0,0,1,1,0,0,1,0,1,0,1,1,0,1],[1,1,1,1,0,1,1,1,1,0,1,0,1,0,1,1,0,0,1,0],[1,1,0,1,1,1,1,0,1,0,0,1,0,1,1,1,1,0,1,1],[1,1,1,1,1,1,1,0,0,1,1,0,0,1,1,0,1,0,0,1],[1,1,0,1,1,0,0,0,0,0,1,0,1,1,0,1,1,0,0,1],[0,0,1,1,1,0,0,0,1,0,1,0,1,1,0,1,0,0,0,0]],"displayWidth":172,"displayHeight":172,"spacing":100,"style":{"gridBorderColor":"#ffffff","gridBorderWidth":"3","dotColor":"#ffffff","dotLineWidth":"1"}},"pluginResponse":[{"startTime":109111.99999996461,"rt":2623.0000001378357,"response":[{"id":0,"name":"Left","answer":76,"prompt":"Left","lastChangedTime":111229.99999998137},{"id":1,"name":"Right","answer":"50","prompt":"Right","lastChangedTime":null}],"stimulusOffTime":902.0000000018626,"trial_type":"canvas-sliders-response","trial_index":47,"time_elapsed":111495,"internal_node_id":"0.0-13.0-0.7"},{"choiceTime":0,"choice":3,"totalTime":2003.000000026077,"image":"http://localhost:8080/ExploringSocialMetacognition/assets/image/advisor1.png","adviceTime":2003.000000026077,"trial_type":"jspsych-jas-present-advice-choice","trial_index":48,"time_elapsed":113497,"internal_node_id":"0.0-13.0-1.7"},{"startTime":113739.99999999069,"rt":1523.0000000447035,"response":[{"id":0,"name":"Left","answer":94,"prompt":"Left","lastChangedTime":114731.00000014529},{"id":1,"name":"Right","answer":"50","prompt":"Right","lastChangedTime":null}],"trial_type":"canvas-sliders-response","trial_index":49,"time_elapsed":115023,"internal_node_id":"0.0-13.0-2.7"}],"confidenceCategory":2,"advisorAgrees":false,"advice":{"filePath":"assets/audio/voices/1/left_think.wav","string":"It was on the LEFT, I think","loaded":true,"loading":true,"data":null,"buffer":{},"side":0,"confidence":0}},{"type":2,"typeName":"choice","block":2,"advisorId":3,"choice":[2,3],"answer":[1,1],"confidence":[4,32],"whichSide":1,"practice":false,"feedback":false,"warnings":[],"stimulusDrawTime":[116167.00000013225],"stimulusOffTime":[901.0000000707805,null],"fixationDrawTime":[115667.00000013225],"id":16,"dotDifference":12,"grid":{"dotCountL":188,"dotCountR":212,"gridWidth":20,"gridHeight":20,"dotWidth":2,"dotHeight":2,"paddingX":6,"paddingY":6,"gridL":[[1,0,0,0,0,1,1,1,1,1,0,1,0,0,0,0,0,0,0,1],[0,1,1,0,0,0,1,0,0,1,0,1,0,0,1,0,1,0,1,1],[0,0,1,1,1,1,1,0,0,1,0,0,0,0,1,0,1,0,1,0],[0,1,1,1,1,0,0,1,1,0,0,0,0,1,0,0,1,0,1,1],[0,1,0,0,0,1,0,0,0,1,0,0,1,0,0,0,0,0,0,0],[1,1,0,0,1,0,1,1,1,0,0,1,1,0,0,1,0,0,0,0],[1,1,0,0,1,1,1,1,1,0,1,1,0,1,1,0,0,0,0,0],[0,0,0,1,0,0,0,1,0,1,1,0,1,0,1,0,0,1,0,0],[1,1,1,0,0,0,0,0,1,0,1,0,1,1,0,0,0,1,0,1],[1,0,1,0,1,0,1,0,0,1,0,1,1,1,0,1,1,0,0,0],[0,0,0,0,1,1,0,0,1,1,1,1,1,0,1,0,1,0,1,1],[0,1,1,0,0,0,1,1,0,1,1,1,0,0,0,0,0,0,1,1],[0,1,1,1,0,0,1,0,0,0,0,0,1,1,0,1,1,1,1,0],[1,1,1,0,1,1,1,1,0,1,0,1,0,1,0,0,0,0,1,0],[1,1,0,0,0,0,0,0,1,1,1,1,0,0,1,1,1,1,1,1],[1,0,1,1,1,0,1,0,0,0,1,0,1,1,1,0,0,1,1,1],[0,1,0,1,0,1,1,1,0,0,1,0,0,1,1,0,0,0,1,0],[0,1,0,0,0,0,0,0,1,1,1,0,1,1,0,0,0,0,0,0],[1,1,1,0,1,1,1,1,1,0,1,0,1,1,1,0,0,0,1,1],[0,0,0,0,0,1,1,1,1,1,0,1,1,0,0,0,0,0,0,1]],"gridR":[[1,1,1,1,0,0,0,0,1,1,1,0,0,1,0,1,1,0,0,0],[0,1,0,0,1,0,1,1,0,0,1,0,1,0,0,1,0,0,0,0],[0,1,1,1,0,1,0,1,0,1,0,0,1,0,0,0,1,0,1,1],[1,1,0,1,1,1,0,0,0,1,1,0,1,1,1,0,1,0,1,1],[1,1,1,0,1,1,1,0,0,1,0,0,1,0,0,0,0,1,1,0],[1,0,0,1,1,0,0,1,1,0,1,0,0,1,1,1,0,1,0,0],[0,1,1,1,1,0,0,0,1,1,0,1,0,0,1,1,1,1,0,0],[0,0,0,0,1,1,0,0,1,1,0,1,0,1,0,1,0,1,1,1],[0,1,1,0,0,1,1,1,1,1,1,0,1,1,0,0,0,1,0,1],[0,0,0,0,1,0,0,0,1,0,1,0,0,1,0,1,1,1,0,0],[0,0,0,1,1,1,0,1,1,1,0,1,0,0,1,1,0,0,0,1],[1,1,1,1,1,1,0,1,1,0,1,0,1,1,0,1,0,1,0,1],[0,1,0,0,1,0,0,0,0,1,1,0,0,0,1,1,1,0,1,0],[1,0,0,0,0,1,0,1,0,0,0,0,1,0,1,0,0,0,1,1],[1,1,0,1,0,1,1,1,1,1,0,0,1,1,1,0,1,1,1,1],[0,1,1,1,1,0,0,1,0,1,1,0,0,0,1,1,0,1,0,1],[1,1,1,0,1,0,1,1,0,0,1,0,0,0,1,0,0,1,1,1],[1,0,1,1,0,1,1,1,0,1,1,1,0,0,1,1,0,0,0,1],[0,1,1,0,1,1,1,1,1,1,1,1,1,0,1,1,1,0,0,0],[1,1,0,1,1,1,0,0,1,0,1,1,0,1,1,0,0,0,0,0]],"displayWidth":172,"displayHeight":172,"spacing":100,"style":{"gridBorderColor":"#ffffff","gridBorderWidth":"3","dotColor":"#ffffff","dotLineWidth":"1"}},"pluginResponse":[{"startTime":115466.0000000149,"rt":2456.99999993667,"response":[{"id":0,"name":"Left","answer":50,"prompt":"Left","lastChangedTime":null},{"id":1,"name":"Right","answer":"4","prompt":"Right","lastChangedTime":117468.0000001099}],"stimulusOffTime":901.0000000707805,"trial_type":"canvas-sliders-response","trial_index":50,"time_elapsed":117682,"internal_node_id":"0.0-13.0-0.8"},{"choiceTime":1170.9999998565763,"choice":3,"totalTime":3173.9999998826534,"image":"http://localhost:8080/ExploringSocialMetacognition/assets/image/advisor1.png","adviceTime":2003.000000026077,"trial_type":"jspsych-jas-present-advice-choice","trial_index":51,"time_elapsed":120856,"internal_node_id":"0.0-13.0-1.8"},{"startTime":121100.00000009313,"rt":1415.000000037253,"response":[{"id":0,"name":"Left","answer":50,"prompt":"Left","lastChangedTime":null},{"id":1,"name":"Right","answer":"32","prompt":"Right","lastChangedTime":121956.00000000559}],"trial_type":"canvas-sliders-response","trial_index":52,"time_elapsed":122273,"internal_node_id":"0.0-13.0-2.8"}],"confidenceCategory":0,"advisorAgrees":true,"advice":{"filePath":"assets/audio/voices/1/think_right.wav","string":"I think it was on the RIGHT","loaded":true,"loading":true,"data":null,"buffer":{},"side":1,"confidence":0}},{"type":2,"typeName":"choice","block":2,"advisorId":2,"choice":[2,3],"answer":[0,0],"confidence":[38,9],"whichSide":0,"practice":false,"feedback":false,"warnings":[],"stimulusDrawTime":[123415.99999996834],"stimulusOffTime":[901.0000000707805,null],"fixationDrawTime":[122917.00000013225],"id":17,"dotDifference":12,"grid":{"dotCountL":212,"dotCountR":188,"gridWidth":20,"gridHeight":20,"dotWidth":2,"dotHeight":2,"paddingX":6,"paddingY":6,"gridL":[[0,0,0,0,1,1,0,1,1,0,1,0,1,0,1,1,1,0,1,1],[0,1,1,0,1,0,0,0,0,1,1,1,0,1,1,0,0,0,1,0],[1,1,0,0,0,0,0,1,1,0,1,0,0,1,1,1,0,1,1,0],[1,1,1,1,1,0,1,0,1,0,1,0,1,1,0,1,1,0,0,0],[0,0,0,0,1,1,1,0,1,1,1,0,1,1,0,0,0,1,0,1],[0,1,1,1,1,0,1,0,1,0,1,0,0,1,0,0,1,1,1,0],[0,1,1,0,0,1,0,0,0,0,0,1,1,1,1,1,0,0,1,1],[1,1,1,0,0,0,0,1,0,1,0,1,0,1,1,1,0,1,0,0],[0,1,1,1,1,0,0,1,1,0,1,1,1,1,1,1,0,1,0,1],[1,1,1,0,1,0,0,1,0,1,1,0,1,1,1,0,0,0,0,1],[1,1,0,0,0,0,0,1,1,1,1,1,0,1,0,1,0,1,0,1],[0,1,0,0,1,0,0,1,1,1,1,0,1,0,1,1,1,0,0,1],[1,1,0,1,0,1,1,0,1,1,0,0,0,1,0,0,0,0,0,1],[0,1,0,1,1,1,0,0,0,1,0,0,0,1,0,0,1,0,1,1],[0,1,0,1,1,1,1,1,1,1,1,0,1,0,0,1,0,1,0,1],[1,0,1,1,1,0,1,1,0,0,0,1,0,1,0,0,1,0,1,0],[1,0,0,0,0,0,1,1,1,1,0,0,1,1,1,0,0,1,0,0],[1,0,0,0,1,1,0,1,1,1,1,0,0,0,1,0,1,0,0,1],[1,1,0,0,0,1,0,0,1,0,0,1,1,1,0,1,1,0,1,0],[0,1,1,1,0,0,1,1,0,0,1,1,0,1,0,1,1,0,1,1]],"gridR":[[1,0,0,1,1,0,1,0,0,0,0,1,1,1,0,1,0,0,1,0],[1,0,1,0,1,1,0,0,1,1,1,1,1,0,0,1,1,1,1,0],[1,0,0,0,1,1,0,1,0,0,0,1,1,1,1,1,0,0,0,0],[0,1,1,0,0,1,0,0,1,1,0,1,0,0,0,0,1,0,1,0],[0,1,0,1,1,1,1,0,1,1,1,0,1,0,0,0,0,0,1,0],[0,1,0,0,1,1,1,0,1,0,1,0,0,0,0,1,1,1,0,0],[1,1,1,0,1,1,0,1,0,0,0,1,0,0,0,0,1,0,0,1],[1,0,0,0,1,1,0,0,0,0,1,0,1,1,0,0,0,1,0,0],[0,1,0,0,1,1,1,1,1,0,1,1,1,0,0,1,0,1,1,1],[1,1,0,1,0,0,1,0,1,0,1,0,0,1,0,0,1,1,0,0],[0,0,0,0,0,1,1,0,1,1,0,0,1,0,0,1,0,1,1,0],[1,0,0,1,0,1,0,0,1,1,0,1,0,0,0,0,1,1,1,1],[1,1,1,1,1,0,0,1,1,1,1,1,0,0,0,0,0,0,1,0],[0,0,0,0,0,0,1,0,0,1,1,1,1,1,0,1,1,1,0,1],[0,1,1,1,0,1,0,0,0,0,0,1,1,0,0,0,1,0,0,0],[0,0,1,1,1,0,1,0,0,1,1,0,1,1,0,0,1,0,1,0],[0,0,0,0,0,0,0,0,1,0,1,0,1,0,0,0,0,1,0,0],[1,1,1,1,1,0,0,0,1,0,1,0,1,0,0,0,1,0,1,1],[0,0,0,1,1,1,0,0,0,0,0,0,0,1,1,0,0,0,1,1],[1,1,1,1,0,1,1,1,1,0,1,1,1,0,0,0,1,1,1,0]],"displayWidth":172,"displayHeight":172,"spacing":100,"style":{"gridBorderColor":"#ffffff","gridBorderWidth":"3","dotColor":"#ffffff","dotLineWidth":"1"}},"pluginResponse":[{"startTime":122716.0000000149,"rt":2108.0000000074506,"response":[{"id":0,"name":"Left","answer":38,"prompt":"Left","lastChangedTime":124365.99999992177},{"id":1,"name":"Right","answer":"50","prompt":"Right","lastChangedTime":null}],"stimulusOffTime":901.0000000707805,"trial_type":"canvas-sliders-response","trial_index":53,"time_elapsed":124584,"internal_node_id":"0.0-13.0-0.9"},{"choiceTime":736.9999999646097,"choice":2,"totalTime":2739.999999990687,"image":"http://localhost:8080/ExploringSocialMetacognition/assets/image/advisor3.png","adviceTime":2003.000000026077,"trial_type":"jspsych-jas-present-advice-choice","trial_index":54,"time_elapsed":127324,"internal_node_id":"0.0-13.0-1.9"},{"startTime":127566.00000010803,"rt":1429.9999999348074,"response":[{"id":0,"name":"Left","answer":9,"prompt":"Left","lastChangedTime":128489.0000000596},{"id":1,"name":"Right","answer":"50","prompt":"Right","lastChangedTime":null}],"trial_type":"canvas-sliders-response","trial_index":55,"time_elapsed":128755,"internal_node_id":"0.0-13.0-2.9"}],"confidenceCategory":0,"advisorAgrees":false,"advice":{"filePath":"assets/audio/voices/2/think_right.wav","string":"I think it was on the RIGHT","loaded":true,"loading":true,"data":null,"buffer":{},"side":1,"confidence":0}},{"type":2,"typeName":"choice","block":2,"advisorId":3,"choice":[3,2],"answer":[1,1],"confidence":[16,44],"whichSide":1,"practice":false,"feedback":false,"warnings":[],"stimulusDrawTime":[129901.00000007078],"stimulusOffTime":[900.9999998379499,null],"fixationDrawTime":[129398.0000000447],"id":18,"dotDifference":9,"grid":{"dotCountL":191,"dotCountR":209,"gridWidth":20,"gridHeight":20,"dotWidth":2,"dotHeight":2,"paddingX":6,"paddingY":6,"gridL":[[0,1,1,0,0,0,0,0,1,1,0,0,1,1,1,1,1,1,0,1],[1,0,1,1,1,0,1,0,1,0,0,0,0,0,0,1,0,1,0,1],[1,0,0,0,1,0,0,0,0,1,1,0,1,0,1,0,0,0,0,1],[1,0,1,1,1,0,0,0,0,1,0,0,1,0,1,1,0,0,1,0],[1,0,0,0,1,1,0,1,0,0,1,0,1,0,1,0,0,0,0,0],[0,0,1,1,0,1,0,0,1,0,0,1,1,1,0,0,1,1,0,1],[0,0,1,0,0,1,0,1,1,0,1,1,0,0,0,0,1,1,1,1],[0,0,0,0,0,1,1,0,0,0,0,0,1,1,0,0,1,1,1,0],[0,0,0,0,1,0,1,0,0,0,0,0,1,0,0,0,0,1,1,0],[1,0,0,0,1,1,1,0,1,1,0,0,1,1,0,1,0,1,0,0],[0,0,0,1,1,0,1,0,1,0,1,1,1,0,0,0,1,1,0,1],[1,0,1,1,1,1,0,0,1,0,0,0,0,1,1,1,0,1,0,0],[1,1,0,1,0,0,0,0,0,1,0,1,0,1,0,1,0,0,0,1],[1,1,0,0,0,0,0,1,1,1,0,1,1,0,0,1,1,1,1,0],[0,0,0,0,1,0,0,1,1,0,0,1,1,0,0,1,1,1,0,0],[0,1,0,1,1,1,1,1,1,1,1,1,1,1,1,0,1,0,1,1],[1,1,1,0,0,0,1,0,0,0,0,0,1,1,0,1,0,1,0,1],[1,1,0,1,1,1,1,0,0,1,1,1,0,1,1,0,1,1,0,1],[0,0,0,1,1,1,1,1,0,0,1,0,0,0,1,1,1,1,1,1],[0,0,0,0,0,0,0,0,0,0,1,1,1,1,0,1,1,1,1,0]],"gridR":[[0,1,1,1,1,1,1,1,1,0,0,0,1,0,1,0,0,0,0,1],[0,1,0,0,1,0,0,0,1,0,1,1,1,1,1,0,1,0,1,1],[0,0,1,0,0,1,1,1,0,1,1,1,1,0,0,1,1,0,1,0],[1,0,1,0,1,1,0,1,1,0,1,0,1,0,1,0,0,1,1,1],[0,0,1,0,0,0,1,1,0,1,1,0,1,0,1,1,0,1,0,0],[1,0,0,1,1,0,0,1,0,1,1,0,1,1,0,1,1,1,0,1],[1,0,0,0,1,1,1,0,1,1,1,1,0,0,1,0,1,1,0,1],[1,1,1,0,0,1,0,1,1,0,1,0,1,0,0,0,1,0,1,0],[1,0,1,0,1,0,0,1,1,1,0,1,1,1,0,0,0,0,0,1],[0,0,0,1,1,1,1,1,1,0,0,1,0,0,1,1,0,0,0,1],[0,0,0,1,1,0,1,0,1,1,0,1,0,0,0,0,1,1,0,0],[0,1,0,1,0,0,0,0,0,0,1,0,1,1,1,0,0,1,0,1],[0,0,0,0,0,0,1,1,0,0,0,0,1,1,1,1,0,0,1,1],[1,1,0,0,1,0,0,1,0,1,0,1,0,0,1,1,0,0,1,1],[0,1,0,1,1,1,1,0,1,0,1,1,0,1,0,0,1,1,0,0],[0,1,0,0,0,0,1,0,1,0,0,1,1,1,1,1,0,0,0,1],[1,1,0,1,1,1,1,1,1,1,1,0,1,1,1,1,0,1,1,0],[1,0,1,1,0,1,1,1,1,0,0,1,1,0,1,1,0,0,0,1],[1,0,1,0,1,0,0,1,0,0,0,0,0,1,1,0,0,1,1,0],[1,1,0,0,0,0,0,1,1,1,1,0,1,1,0,1,0,1,1,0]],"displayWidth":172,"displayHeight":172,"spacing":100,"style":{"gridBorderColor":"#ffffff","gridBorderWidth":"3","dotColor":"#ffffff","dotLineWidth":"1"}},"pluginResponse":[{"startTime":129198.00000009127,"rt":2440.999999875203,"response":[{"id":0,"name":"Left","answer":50,"prompt":"Left","lastChangedTime":null},{"id":1,"name":"Right","answer":"16","prompt":"Right","lastChangedTime":131060.99999998696}],"stimulusOffTime":900.9999998379499,"trial_type":"canvas-sliders-response","trial_index":56,"time_elapsed":131398,"internal_node_id":"0.0-13.0-0.10"},{"choiceTime":608.0000000074506,"choice":3,"totalTime":2610.999999800697,"image":"http://localhost:8080/ExploringSocialMetacognition/assets/image/advisor1.png","adviceTime":2002.9999997932464,"trial_type":"jspsych-jas-present-advice-choice","trial_index":57,"time_elapsed":134010,"internal_node_id":"0.0-13.0-1.10"},{"startTime":134252.000000095,"rt":1261.9999998714775,"response":[{"id":0,"name":"Left","answer":50,"prompt":"Left","lastChangedTime":null},{"id":1,"name":"Right","answer":"44","prompt":"Right","lastChangedTime":135052.00000014156}],"trial_type":"canvas-sliders-response","trial_index":58,"time_elapsed":135274,"internal_node_id":"0.0-13.0-2.10"}],"confidenceCategory":0,"advisorAgrees":true,"advice":{"filePath":"assets/audio/voices/1/right_think.wav","string":"It was on the RIGHT, I think","loaded":true,"loading":true,"data":null,"buffer":{},"side":1,"confidence":0}},{"type":1,"typeName":"force","block":2,"advisorId":3,"choice":[],"answer":[0,0],"confidence":[74,50],"whichSide":1,"practice":false,"feedback":false,"warnings":[],"stimulusDrawTime":[136419.9999999255],"stimulusOffTime":[903.0000001657754,null],"fixationDrawTime":[135919.9999999255],"id":19,"dotDifference":6,"grid":{"dotCountL":194,"dotCountR":206,"gridWidth":20,"gridHeight":20,"dotWidth":2,"dotHeight":2,"paddingX":6,"paddingY":6,"gridL":[[1,0,1,1,0,0,0,1,0,1,0,0,1,0,1,1,0,1,1,1],[0,0,0,1,1,0,0,1,1,0,1,1,1,1,1,0,0,1,1,0],[1,1,1,1,0,1,1,0,1,0,1,0,1,0,0,1,0,0,0,1],[1,1,1,0,0,0,0,0,0,1,1,0,0,0,1,1,1,0,1,0],[1,0,1,1,0,1,1,1,0,1,1,1,1,1,0,1,0,1,0,1],[0,0,0,0,1,1,1,1,0,0,0,1,0,0,1,1,1,0,0,0],[1,0,0,0,0,1,0,0,0,0,0,1,0,0,0,0,0,1,1,0],[1,0,1,0,1,1,0,0,0,0,1,0,1,0,0,0,0,0,1,0],[0,1,0,0,0,1,1,1,0,1,0,0,0,1,1,0,1,0,0,0],[1,1,0,0,0,0,1,1,1,1,0,0,0,1,1,0,1,1,1,0],[0,0,1,1,1,0,0,1,1,0,0,1,1,0,1,0,1,1,0,0],[0,1,1,1,0,0,0,1,1,1,0,0,0,0,0,1,0,1,1,1],[0,1,0,1,1,1,1,0,0,1,1,0,1,0,1,0,0,0,0,1],[0,1,0,0,1,1,1,0,1,1,1,0,0,1,0,1,0,0,1,0],[1,1,1,1,0,0,0,1,0,0,0,1,0,1,1,1,1,1,0,1],[0,0,1,1,1,0,0,1,0,1,0,1,0,0,0,0,0,1,0,1],[1,1,1,0,1,0,0,1,0,0,0,1,1,1,0,0,1,1,0,1],[0,0,1,0,1,0,0,0,0,0,1,0,1,0,0,1,1,1,1,0],[0,0,0,0,0,1,1,0,1,0,1,0,0,1,1,0,1,1,1,1],[1,0,1,1,1,1,0,0,1,1,0,0,0,1,0,0,1,1,0,0]],"gridR":[[1,1,0,0,0,0,1,0,1,1,0,0,0,1,1,1,1,1,1,0],[0,0,1,1,0,0,1,0,0,0,1,0,1,1,1,1,0,0,0,0],[0,1,1,1,1,1,1,1,0,1,1,0,1,1,0,1,0,0,0,1],[0,0,0,0,1,0,0,0,1,0,0,0,1,0,0,0,1,0,0,0],[0,0,0,0,0,0,1,0,0,0,0,0,0,1,0,1,0,0,1,1],[1,0,1,1,1,1,0,0,1,0,1,1,0,1,1,0,0,0,1,1],[0,1,0,1,1,1,0,0,1,1,0,1,1,1,0,0,0,0,0,1],[0,0,1,1,0,0,0,1,1,1,1,1,1,1,1,1,1,1,0,0],[0,1,0,1,0,1,0,1,1,0,0,0,0,0,0,0,1,1,0,0],[0,1,0,0,0,1,0,0,1,1,0,1,0,0,1,1,1,0,1,0],[1,1,0,0,1,0,1,1,1,1,1,0,1,0,1,1,1,1,1,1],[1,0,0,1,0,1,0,0,1,0,0,1,0,0,1,0,1,0,1,0],[1,1,1,0,0,1,1,0,1,0,1,0,0,0,1,0,1,0,1,0],[0,1,0,0,1,0,1,1,1,1,1,1,0,1,0,0,1,0,1,1],[0,1,0,1,1,1,0,1,1,1,1,1,0,0,1,0,1,0,0,1],[1,1,1,1,0,1,1,0,0,0,1,1,1,1,0,1,1,1,0,0],[1,1,1,0,1,0,0,1,1,0,1,0,0,1,1,0,0,0,0,1],[0,0,0,1,1,1,1,0,1,0,0,1,1,0,0,0,0,1,0,1],[0,1,1,1,1,1,1,0,1,1,1,1,1,0,1,1,1,0,0,1],[1,0,1,1,0,1,0,0,0,1,1,1,0,0,1,1,0,0,1,0]],"displayWidth":172,"displayHeight":172,"spacing":100,"style":{"gridBorderColor":"#ffffff","gridBorderWidth":"3","dotColor":"#ffffff","dotLineWidth":"1"}},"pluginResponse":[{"startTime":135716.99999994598,"rt":2129.00000018999,"response":[{"id":0,"name":"Left","answer":74,"prompt":"Left","lastChangedTime":137334.00000003166},{"id":1,"name":"Right","answer":"50","prompt":"Right","lastChangedTime":null}],"stimulusOffTime":903.0000001657754,"trial_type":"canvas-sliders-response","trial_index":59,"time_elapsed":137604,"internal_node_id":"0.0-13.0-0.11"},{"choiceTime":0,"choice":3,"totalTime":2003.000000026077,"image":"http://localhost:8080/ExploringSocialMetacognition/assets/image/advisor1.png","adviceTime":2003.000000026077,"trial_type":"jspsych-jas-present-advice-choice","trial_index":60,"time_elapsed":139608,"internal_node_id":"0.0-13.0-1.11"},{"startTime":139851.0000000242,"rt":1168.999999994412,"response":[{"id":0,"name":"Left","answer":50,"prompt":"Left","lastChangedTime":140458.00000010058},{"id":1,"name":"Right","answer":"50","prompt":"Right","lastChangedTime":null}],"trial_type":"canvas-sliders-response","trial_index":61,"time_elapsed":140779,"internal_node_id":"0.0-13.0-2.11"}],"confidenceCategory":2,"advisorAgrees":true,"advice":{"filePath":"assets/audio/voices/1/right_think.wav","string":"It was on the RIGHT, I think","loaded":true,"loading":true,"data":null,"buffer":{},"side":1,"confidence":0}},{"type":2,"typeName":"choice","block":3,"advisorId":3,"choice":[3,2],"answer":[0,0],"confidence":[58,84],"whichSide":0,"practice":false,"feedback":false,"warnings":[],"stimulusDrawTime":[142971.00000013597],"stimulusOffTime":[901.0000000707805,null],"fixationDrawTime":[142471.00000013597],"id":20,"dotDifference":9,"grid":{"dotCountL":209,"dotCountR":191,"gridWidth":20,"gridHeight":20,"dotWidth":2,"dotHeight":2,"paddingX":6,"paddingY":6,"gridL":[[1,1,1,0,1,1,1,1,0,0,1,1,0,1,1,1,0,0,0,0],[1,1,0,1,0,1,1,1,0,0,0,0,0,1,1,1,1,0,0,0],[0,0,0,0,1,1,1,0,0,1,1,0,0,0,0,1,0,1,0,1],[1,0,1,0,0,0,0,0,1,1,0,1,0,1,0,1,1,1,1,0],[1,0,1,0,1,1,1,0,1,1,0,0,0,1,0,0,1,1,1,0],[0,1,0,1,1,1,1,1,1,0,0,1,0,1,1,1,0,1,0,0],[1,1,1,1,1,1,0,1,0,1,0,0,0,1,1,0,1,1,0,1],[0,0,0,1,0,1,1,1,1,1,0,1,0,0,1,0,0,1,0,1],[0,1,0,1,0,0,0,1,1,0,1,1,0,1,1,1,0,0,0,0],[0,0,1,1,1,1,0,0,1,0,1,1,0,0,0,0,1,1,1,1],[0,0,1,1,0,1,1,1,1,1,0,0,1,0,0,1,0,0,1,0],[0,0,0,1,1,1,0,1,0,0,0,1,1,1,1,1,1,0,1,0],[0,0,1,0,0,1,0,0,1,0,0,0,0,1,0,0,0,1,0,0],[1,1,0,1,0,1,1,1,0,1,0,0,0,1,0,1,0,1,1,0],[0,0,0,0,1,0,1,1,1,1,1,1,0,1,1,0,0,1,1,1],[0,0,1,1,1,0,1,1,1,0,0,0,1,1,1,0,0,1,1,1],[1,1,1,1,1,1,1,1,0,1,0,0,1,0,1,0,1,1,0,0],[0,0,1,0,1,1,0,0,0,0,1,1,1,1,0,0,1,1,1,1],[0,0,0,0,1,0,1,0,1,0,0,1,0,1,0,0,0,0,1,1],[0,1,1,0,0,0,1,1,0,1,0,0,1,1,0,1,1,1,1,0]],"gridR":[[0,0,1,0,0,0,0,1,0,1,0,1,1,1,1,1,0,1,0,1],[0,0,0,0,0,1,1,0,0,1,0,0,1,0,0,1,1,1,1,1],[1,0,1,0,0,0,1,1,0,1,1,1,0,0,0,1,1,0,1,0],[0,1,1,0,1,1,0,0,0,1,0,0,0,1,0,0,1,1,1,0],[0,0,1,0,1,0,1,1,0,0,1,0,0,0,1,1,0,0,0,1],[0,1,0,0,0,1,1,1,1,1,0,0,0,0,1,0,1,1,0,0],[1,0,1,0,0,0,1,1,0,0,1,1,0,1,0,0,0,1,1,0],[0,0,0,1,1,0,0,0,1,0,1,0,0,0,0,0,0,0,0,0],[0,1,1,0,0,1,1,0,1,1,0,1,0,0,1,1,1,0,1,0],[1,1,1,0,1,0,0,1,0,1,0,1,0,1,0,1,0,0,0,1],[0,0,0,0,1,1,1,0,0,1,1,0,1,0,1,0,0,0,1,0],[0,0,1,1,1,1,0,1,0,0,0,0,0,0,1,0,0,1,0,1],[0,1,1,1,1,0,0,1,1,1,1,1,0,1,0,1,1,1,0,0],[1,1,0,1,1,1,1,0,0,1,0,0,1,0,1,0,0,0,1,1],[1,0,1,0,1,1,1,0,1,1,1,1,0,1,0,1,1,0,0,0],[0,1,1,0,0,1,0,1,1,1,0,0,0,0,0,0,0,1,0,1],[1,0,1,0,1,0,1,0,1,1,0,0,0,1,1,1,0,1,0,0],[0,0,0,0,0,1,1,0,0,1,1,0,1,1,1,0,0,0,1,0],[1,1,1,1,1,1,0,1,1,1,0,0,0,1,1,0,1,1,0,0],[1,1,0,0,0,0,1,1,0,1,1,1,1,1,0,1,0,0,1,0]],"displayWidth":172,"displayHeight":172,"spacing":100,"style":{"gridBorderColor":"#ffffff","gridBorderWidth":"3","dotColor":"#ffffff","dotLineWidth":"1"}},"pluginResponse":[{"startTime":142270.9999999497,"rt":2317.0000000391155,"response":[{"id":0,"name":"Left","answer":58,"prompt":"Left","lastChangedTime":144066.00000010803},{"id":1,"name":"Right","answer":"50","prompt":"Right","lastChangedTime":null}],"stimulusOffTime":901.0000000707805,"trial_type":"canvas-sliders-response","trial_index":63,"time_elapsed":144348,"internal_node_id":"0.0-15.0-0.0"},{"choiceTime":664.0000001061708,"choice":3,"totalTime":2666.0000002011657,"image":"http://localhost:8080/ExploringSocialMetacognition/assets/image/advisor1.png","adviceTime":2002.000000094995,"trial_type":"jspsych-jas-present-advice-choice","trial_index":64,"time_elapsed":147013,"internal_node_id":"0.0-15.0-1.0"},{"startTime":147256.00000005215,"rt":1064.9999999441206,"response":[{"id":0,"name":"Left","answer":84,"prompt":"Left","lastChangedTime":147770.00000001863},{"id":1,"name":"Right","answer":"50","prompt":"Right","lastChangedTime":null}],"trial_type":"canvas-sliders-response","trial_index":65,"time_elapsed":148079,"internal_node_id":"0.0-15.0-2.0"}],"confidenceCategory":2,"advisorAgrees":true,"advice":{"filePath":"assets/audio/voices/1/think_left.wav","string":"I think it was on the LEFT","loaded":true,"loading":true,"data":null,"buffer":{},"side":0,"confidence":0}},{"type":2,"typeName":"choice","block":3,"advisorId":2,"choice":[3,2],"answer":[0,0],"confidence":[71,50],"whichSide":1,"practice":false,"feedback":false,"warnings":[],"stimulusDrawTime":[149222.99999999814],"stimulusOffTime":[899.9999999068677,null],"fixationDrawTime":[148722.99999999814],"id":21,"dotDifference":9,"grid":{"dotCountL":191,"dotCountR":209,"gridWidth":20,"gridHeight":20,"dotWidth":2,"dotHeight":2,"paddingX":6,"paddingY":6,"gridL":[[1,1,0,1,0,0,0,1,1,0,0,1,1,1,1,1,1,1,1,1],[0,0,0,1,0,0,1,0,0,1,1,0,0,1,0,0,0,1,0,1],[1,0,1,1,1,0,1,0,0,1,1,0,1,0,0,1,1,0,0,1],[0,1,0,0,1,0,1,0,1,0,0,1,0,1,0,1,1,0,0,0],[0,0,1,1,0,0,1,0,0,1,1,1,0,1,1,1,0,1,0,0],[0,0,1,0,0,1,1,0,1,1,0,1,1,1,1,0,1,1,0,0],[1,0,0,1,0,0,0,0,0,0,1,1,0,1,0,1,1,0,0,0],[0,0,1,1,1,0,1,1,1,1,0,0,0,0,0,0,0,1,1,1],[0,1,0,1,1,1,0,0,0,0,0,1,0,0,1,0,1,1,0,1],[0,1,0,0,0,1,0,0,1,0,0,1,1,0,1,1,0,1,1,0],[0,1,0,1,1,0,1,0,1,0,0,1,0,0,1,0,1,0,1,0],[0,1,0,0,1,0,0,1,1,1,1,0,1,0,0,0,1,0,0,0],[1,0,0,1,0,1,1,1,0,0,1,1,0,0,0,0,1,1,0,0],[1,0,0,1,0,1,0,0,0,0,0,1,0,0,0,0,0,1,0,1],[1,1,0,1,1,0,1,1,0,0,0,0,1,1,0,0,1,0,1,0],[1,0,0,1,0,0,1,0,1,1,1,1,0,1,1,0,1,1,0,1],[0,0,1,0,1,1,1,1,0,0,1,0,1,0,1,1,0,1,1,1],[0,1,0,0,1,1,0,1,0,1,0,1,1,0,0,0,0,1,0,0],[1,0,1,0,1,1,0,0,1,1,1,0,0,1,1,1,0,0,1,0],[0,1,1,0,1,0,0,0,1,0,1,0,0,1,1,1,0,1,1,0]],"gridR":[[0,0,1,0,1,1,0,1,1,1,1,1,1,1,0,0,1,0,0,1],[1,0,0,1,0,1,1,1,0,0,0,1,1,0,0,1,0,1,0,1],[1,0,1,1,0,1,1,0,1,0,1,0,1,1,0,1,1,0,0,1],[0,1,1,1,1,0,1,0,1,0,1,0,1,1,1,0,0,0,1,1],[0,0,0,0,1,0,1,0,0,0,0,1,1,1,0,0,1,1,1,1],[1,1,0,0,0,0,0,0,1,0,0,1,0,0,1,0,0,0,1,1],[0,1,1,1,1,1,1,0,1,0,0,0,1,0,0,0,0,1,0,1],[0,1,0,1,0,1,0,0,0,0,1,1,0,0,1,1,1,1,1,0],[1,0,1,0,0,0,1,0,1,0,0,0,0,1,0,0,1,0,1,0],[0,1,1,0,0,0,0,0,1,1,1,0,1,0,1,0,1,0,0,1],[1,1,1,0,0,0,1,0,1,1,1,1,1,1,1,0,1,0,0,0],[1,1,1,0,0,1,1,1,0,0,1,1,1,0,1,0,1,1,1,1],[1,0,1,0,0,1,0,1,0,1,1,0,0,1,1,1,1,1,1,0],[1,0,0,1,0,1,0,1,0,0,0,1,0,0,1,0,1,1,0,1],[0,1,0,1,0,1,0,0,1,0,0,0,0,1,0,1,1,0,1,1],[0,0,0,0,1,0,0,0,1,1,1,0,1,0,0,0,1,0,0,0],[0,1,1,1,1,1,1,0,1,1,1,1,0,0,0,0,1,1,1,0],[1,1,0,0,0,0,0,1,1,1,0,1,0,0,0,1,1,0,0,1],[1,0,0,1,0,1,1,1,1,1,0,0,0,0,0,1,1,1,0,1],[1,1,1,1,1,1,0,0,0,1,1,1,1,1,0,1,1,1,1,1]],"displayWidth":172,"displayHeight":172,"spacing":100,"style":{"gridBorderColor":"#ffffff","gridBorderWidth":"3","dotColor":"#ffffff","dotLineWidth":"1"}},"pluginResponse":[{"startTime":148523.0000000447,"rt":2337.000000057742,"response":[{"id":0,"name":"Left","answer":71,"prompt":"Left","lastChangedTime":150356.0000001453},{"id":1,"name":"Right","answer":"50","prompt":"Right","lastChangedTime":null}],"stimulusOffTime":899.9999999068677,"trial_type":"canvas-sliders-response","trial_index":66,"time_elapsed":150618,"internal_node_id":"0.0-15.0-0.1"},{"choiceTime":837.000000057742,"choice":2,"totalTime":2840.000000083819,"image":"http://localhost:8080/ExploringSocialMetacognition/assets/image/advisor3.png","adviceTime":2003.000000026077,"trial_type":"jspsych-jas-present-advice-choice","trial_index":67,"time_elapsed":153459,"internal_node_id":"0.0-15.0-1.1"},{"startTime":153702.00000004843,"rt":1669.9999999254942,"response":[{"id":0,"name":"Left","answer":50,"prompt":"Left","lastChangedTime":154793.00000006333},{"id":1,"name":"Right","answer":"50","prompt":"Right","lastChangedTime":null}],"trial_type":"canvas-sliders-response","trial_index":68,"time_elapsed":155130,"internal_node_id":"0.0-15.0-2.1"}],"confidenceCategory":2,"advisorAgrees":true,"advice":{"filePath":"assets/audio/voices/2/right_think.wav","string":"It was on the RIGHT, I think","loaded":true,"loading":true,"data":null,"buffer":{},"side":1,"confidence":0}},{"type":1,"typeName":"force","block":3,"advisorId":2,"choice":[],"answer":[0,0],"confidence":[29,46],"whichSide":0,"practice":false,"feedback":false,"warnings":[],"stimulusDrawTime":[156273.9999999758],"stimulusOffTime":[899.9999999068677,null],"fixationDrawTime":[155773.0000000447],"id":22,"dotDifference":12,"grid":{"dotCountL":212,"dotCountR":188,"gridWidth":20,"gridHeight":20,"dotWidth":2,"dotHeight":2,"paddingX":6,"paddingY":6,"gridL":[[1,0,1,0,1,0,1,0,1,1,0,0,0,1,0,1,0,0,0,0],[0,0,0,0,1,0,0,0,0,1,0,0,0,0,1,0,1,1,1,0],[0,1,0,1,0,0,1,1,1,0,0,1,0,1,1,0,1,1,1,1],[1,0,1,0,0,1,1,1,0,0,0,0,1,0,1,0,1,1,0,1],[1,0,0,1,1,1,0,0,1,1,0,1,1,0,1,1,1,1,1,0],[0,1,1,0,1,0,1,0,1,1,1,1,1,1,0,1,1,1,0,1],[0,0,0,1,1,0,0,1,0,1,0,0,1,1,1,1,0,1,0,1],[0,0,0,1,0,0,1,0,1,1,0,0,0,0,0,1,1,0,1,1],[1,0,0,0,0,0,1,1,0,0,1,1,1,1,1,0,1,1,1,0],[1,1,0,1,0,1,1,1,0,1,1,0,1,1,1,0,1,1,1,0],[1,1,1,1,0,1,1,0,1,0,1,0,0,0,0,1,1,0,0,0],[0,1,0,0,1,1,0,1,1,0,1,1,1,0,0,0,0,0,1,0],[1,0,1,1,0,1,0,0,0,1,1,0,0,0,0,0,1,1,0,1],[0,1,0,1,1,1,0,1,0,0,1,0,1,0,1,1,1,1,0,0],[1,0,0,0,0,1,0,1,0,1,0,0,1,0,1,1,1,1,1,0],[0,0,1,1,1,1,1,0,0,0,1,0,1,1,0,0,0,1,0,1],[1,0,0,1,1,1,1,1,0,0,0,1,0,1,0,1,0,0,1,1],[1,1,0,0,1,0,1,1,0,0,1,0,1,1,1,0,1,1,1,0],[1,0,0,1,1,1,1,0,1,1,0,1,1,0,1,0,0,1,0,0],[0,1,0,1,1,0,1,1,0,1,1,0,1,1,0,1,1,1,1,0]],"gridR":[[0,0,1,1,0,0,1,1,1,0,1,1,1,1,0,1,0,1,0,0],[0,1,1,0,1,1,1,1,0,0,0,0,0,0,0,0,1,1,1,1],[1,1,1,0,1,0,1,1,1,1,1,1,1,0,1,0,0,0,0,1],[1,1,0,0,0,0,0,1,1,0,1,0,0,1,0,1,1,1,1,1],[1,1,1,1,0,0,0,0,0,1,0,0,1,1,0,0,0,1,0,1],[0,0,1,1,1,1,0,1,0,1,0,1,0,0,0,0,1,1,0,0],[0,0,0,1,0,0,0,1,1,0,1,1,0,0,0,0,1,0,1,1],[0,0,1,0,1,1,1,1,0,1,1,0,0,1,0,0,0,1,0,0],[1,1,1,0,0,0,0,0,1,1,0,0,0,1,0,1,1,0,0,0],[0,1,1,0,1,0,0,0,0,1,0,0,1,0,1,1,1,1,0,0],[1,1,0,0,0,1,1,1,1,0,0,1,0,1,0,0,1,0,0,1],[0,0,1,0,1,1,0,0,0,0,1,0,1,0,0,0,0,0,1,0],[1,1,0,0,0,0,1,1,0,0,1,0,0,0,0,1,0,1,0,1],[0,0,0,0,1,1,1,0,1,0,0,1,1,0,0,0,0,1,0,0],[1,1,1,0,1,1,0,0,0,0,1,1,0,0,0,0,1,0,1,0],[0,0,1,0,1,0,1,1,1,0,0,1,0,1,1,1,0,0,0,0],[1,0,0,1,1,1,1,1,0,0,0,1,0,1,0,1,1,1,0,1],[0,1,1,1,0,0,0,1,1,1,0,1,0,0,1,0,0,1,1,0],[0,1,0,0,0,0,1,1,0,1,0,0,1,1,1,1,0,0,1,0],[1,0,0,1,1,1,0,1,1,0,0,1,1,1,0,1,0,0,0,1]],"displayWidth":172,"displayHeight":172,"spacing":100,"style":{"gridBorderColor":"#ffffff","gridBorderWidth":"3","dotColor":"#ffffff","dotLineWidth":"1"}},"pluginResponse":[{"startTime":155573.00000009127,"rt":2307.9999999608845,"response":[{"id":0,"name":"Left","answer":29,"prompt":"Left","lastChangedTime":157334.99999996275},{"id":1,"name":"Right","answer":"50","prompt":"Right","lastChangedTime":null}],"stimulusOffTime":899.9999999068677,"trial_type":"canvas-sliders-response","trial_index":69,"time_elapsed":157639,"internal_node_id":"0.0-15.0-0.2"},{"choiceTime":0,"choice":2,"totalTime":2002.000000094995,"image":"http://localhost:8080/ExploringSocialMetacognition/assets/image/advisor3.png","adviceTime":2002.000000094995,"trial_type":"jspsych-jas-present-advice-choice","trial_index":70,"time_elapsed":159641,"internal_node_id":"0.0-15.0-1.2"},{"startTime":159885.0000000093,"rt":1564.0000000130385,"response":[{"id":0,"name":"Left","answer":46,"prompt":"Left","lastChangedTime":160966.99999994598},{"id":1,"name":"Right","answer":"50","prompt":"Right","lastChangedTime":null}],"trial_type":"canvas-sliders-response","trial_index":71,"time_elapsed":161207,"internal_node_id":"0.0-15.0-2.2"}],"confidenceCategory":0,"advisorAgrees":true,"advice":{"filePath":"assets/audio/voices/2/left_think.wav","string":"It was on the LEFT, I think","loaded":true,"loading":true,"data":null,"buffer":{},"side":0,"confidence":0}},{"type":1,"typeName":"force","block":3,"advisorId":3,"choice":[],"answer":[1,1],"confidence":[19,50],"whichSide":1,"practice":false,"feedback":false,"warnings":[],"stimulusDrawTime":[162351.0000000242],"stimulusOffTime":[899.9999999068677,null],"fixationDrawTime":[161851.0000000242],"id":23,"dotDifference":12,"grid":{"dotCountL":188,"dotCountR":212,"gridWidth":20,"gridHeight":20,"dotWidth":2,"dotHeight":2,"paddingX":6,"paddingY":6,"gridL":[[0,0,1,0,0,0,1,0,0,0,0,0,1,1,1,0,0,1,0,1],[0,1,0,1,1,1,0,0,0,0,0,0,1,0,0,1,0,1,0,1],[1,1,1,0,1,1,0,0,0,1,0,1,0,1,0,0,1,0,1,1],[1,0,1,0,1,0,1,0,1,1,1,0,0,0,0,0,1,0,1,1],[1,1,0,1,1,1,0,0,1,1,1,0,1,1,1,1,1,0,0,1],[0,1,0,0,0,0,1,1,0,1,1,0,1,1,1,0,0,1,1,1],[1,1,1,0,0,1,0,0,1,0,0,1,1,0,1,1,0,0,1,0],[1,0,0,0,0,1,1,1,1,1,0,1,0,0,1,0,0,0,0,0],[0,0,1,0,0,0,0,1,1,1,0,0,0,1,0,0,0,0,0,1],[1,1,0,1,1,0,0,1,1,1,0,0,1,1,0,1,0,0,1,1],[0,1,1,1,1,0,0,1,0,0,1,1,1,1,0,0,0,1,1,0],[1,0,1,1,0,0,0,1,1,1,0,0,0,1,1,1,0,0,0,0],[1,0,1,0,0,0,1,1,0,0,0,1,0,0,1,0,0,1,1,0],[1,0,0,0,1,1,0,1,0,1,0,0,0,1,1,1,1,0,0,1],[0,1,1,0,0,0,0,1,1,0,1,1,0,0,1,0,1,1,1,0],[1,0,0,0,0,1,1,1,1,0,0,1,0,0,1,0,0,0,1,1],[1,0,0,1,0,1,1,0,1,1,0,0,0,1,1,1,1,0,0,0],[0,0,0,0,0,0,0,1,0,1,0,1,1,0,0,1,1,0,0,0],[0,1,1,0,0,0,0,0,0,0,1,1,1,1,0,0,1,1,1,1],[1,0,1,0,0,0,1,0,1,0,1,0,0,0,0,0,0,1,1,1]],"gridR":[[1,0,1,0,1,0,0,1,0,0,0,0,1,1,0,0,0,1,0,1],[1,1,0,0,1,0,0,0,0,1,1,1,0,1,1,0,1,1,0,0],[0,1,0,1,0,1,1,0,0,0,0,1,1,1,1,0,0,1,0,1],[0,0,0,0,0,0,1,1,0,1,1,0,1,1,1,1,1,0,1,1],[1,0,0,1,1,1,1,0,0,1,0,1,0,0,0,1,0,1,1,1],[1,0,1,1,1,1,1,1,0,1,0,0,0,1,0,1,0,0,1,0],[1,1,0,1,0,0,1,1,0,0,0,1,0,0,0,1,1,1,1,1],[1,0,0,1,1,1,0,1,0,1,0,1,1,1,0,1,0,1,0,0],[1,0,1,0,1,1,1,0,0,1,0,0,0,1,1,1,1,1,1,0],[1,1,0,0,0,1,1,0,1,0,0,0,0,1,1,1,1,1,1,1],[1,0,0,1,1,1,1,1,1,0,1,1,1,1,1,1,0,1,1,0],[1,1,1,0,0,1,1,0,0,0,1,0,1,1,1,0,1,1,1,1],[1,0,1,1,1,1,0,1,1,1,1,0,1,1,1,1,0,1,0,1],[0,1,1,0,0,1,0,1,1,1,0,0,1,0,0,0,1,1,0,0],[0,1,1,0,1,1,1,1,0,1,0,0,1,1,1,0,1,0,0,1],[1,0,0,1,0,1,1,0,0,1,1,0,0,0,1,0,1,1,1,0],[0,0,0,0,1,0,0,0,1,1,0,0,0,1,1,0,0,0,1,1],[0,0,1,0,0,0,0,0,1,0,0,1,1,1,1,1,0,1,1,1],[0,0,0,1,0,1,0,1,0,0,1,1,0,0,0,1,1,1,1,0],[1,1,0,1,0,0,0,0,0,1,0,0,0,0,0,0,0,1,0,0]],"displayWidth":172,"displayHeight":172,"spacing":100,"style":{"gridBorderColor":"#ffffff","gridBorderWidth":"3","dotColor":"#ffffff","dotLineWidth":"1"}},"pluginResponse":[{"startTime":161651.00000007078,"rt":2396.9999998807907,"response":[{"id":0,"name":"Left","answer":50,"prompt":"Left","lastChangedTime":null},{"id":1,"name":"Right","answer":"19","prompt":"Right","lastChangedTime":163557.99999996088}],"stimulusOffTime":899.9999999068677,"trial_type":"canvas-sliders-response","trial_index":72,"time_elapsed":163807,"internal_node_id":"0.0-15.0-0.3"},{"choiceTime":0,"choice":3,"totalTime":2001.9999998621643,"image":"http://localhost:8080/ExploringSocialMetacognition/assets/image/advisor1.png","adviceTime":2001.9999998621643,"trial_type":"jspsych-jas-present-advice-choice","trial_index":73,"time_elapsed":165809,"internal_node_id":"0.0-15.0-1.3"},{"startTime":166052.00000014156,"rt":1397.9999998118728,"response":[{"id":0,"name":"Left","answer":50,"prompt":"Left","lastChangedTime":null},{"id":1,"name":"Right","answer":"50","prompt":"Right","lastChangedTime":166810.00000005588}],"trial_type":"canvas-sliders-response","trial_index":74,"time_elapsed":167208,"internal_node_id":"0.0-15.0-2.3"}],"confidenceCategory":1,"advisorAgrees":true,"advice":{"filePath":"assets/audio/voices/1/think_right.wav","string":"I think it was on the RIGHT","loaded":true,"loading":true,"data":null,"buffer":{},"side":1,"confidence":0}},{"type":2,"typeName":"choice","block":3,"advisorId":2,"choice":[2,3],"answer":[0,0],"confidence":[45,23],"whichSide":0,"practice":false,"feedback":false,"warnings":[],"stimulusDrawTime":[168354.0000000503],"stimulusOffTime":[902.0000000018626,null],"fixationDrawTime":[167854.0000000503],"id":24,"dotDifference":9,"grid":{"dotCountL":209,"dotCountR":191,"gridWidth":20,"gridHeight":20,"dotWidth":2,"dotHeight":2,"paddingX":6,"paddingY":6,"gridL":[[0,0,1,1,0,1,1,0,0,1,0,0,1,0,1,0,0,0,0,0],[0,1,0,1,0,0,1,0,1,1,0,1,1,0,0,0,1,1,1,0],[1,1,1,1,1,1,1,1,1,0,0,1,0,1,0,1,1,0,0,0],[1,1,0,0,1,1,1,0,1,1,0,0,0,0,1,1,0,1,1,0],[1,0,0,0,0,0,1,1,1,1,0,1,0,0,1,0,1,1,0,0],[0,1,1,0,1,0,1,0,1,1,0,0,1,0,0,1,0,0,1,1],[1,1,0,0,1,0,1,1,0,1,1,1,0,0,0,0,0,0,0,1],[0,0,1,1,1,1,0,0,0,1,0,1,1,1,0,0,0,0,0,1],[1,1,1,1,0,0,0,1,1,0,1,1,0,0,0,0,1,1,1,1],[0,0,0,1,0,1,0,1,0,1,1,0,1,1,1,0,0,1,1,1],[1,1,0,0,1,1,1,0,1,0,1,0,0,1,0,1,0,1,1,1],[1,1,1,1,0,1,0,1,1,0,1,1,0,1,1,0,1,1,0,1],[1,0,1,1,1,1,0,0,1,1,1,1,1,0,1,1,1,1,0,0],[1,0,0,1,0,1,1,0,0,0,1,0,1,0,1,1,0,1,1,1],[0,0,1,1,1,0,1,1,1,0,1,0,1,0,0,0,0,1,0,0],[0,1,1,1,1,0,0,0,0,0,1,0,0,1,1,1,1,0,0,1],[0,1,1,0,0,1,1,1,1,0,1,0,1,0,0,1,1,0,0,0],[0,1,1,1,0,0,0,1,0,0,0,1,0,1,0,1,1,1,1,1],[0,0,1,0,1,1,0,1,1,1,1,0,1,0,0,0,0,0,1,0],[0,0,0,1,1,0,1,1,1,0,0,0,0,1,0,1,0,1,0,0]],"gridR":[[0,0,1,0,1,1,0,1,0,0,0,0,1,0,0,0,1,1,0,0],[1,0,0,1,1,1,1,0,0,0,1,1,0,0,1,0,0,0,0,1],[1,1,0,0,0,1,0,0,1,0,0,1,1,1,0,0,1,0,1,0],[1,1,0,0,0,0,1,1,1,0,1,0,0,1,0,0,1,0,0,0],[0,1,0,0,0,0,0,1,1,1,1,0,1,0,1,0,0,1,1,0],[0,1,1,1,0,1,0,1,0,1,0,0,0,1,0,0,1,1,0,1],[1,1,1,1,1,0,1,0,1,0,0,1,1,1,1,0,1,0,1,1],[1,0,1,1,1,1,1,1,0,1,0,0,1,1,0,0,0,1,0,0],[0,0,1,1,0,1,1,0,0,1,1,0,0,0,0,1,0,1,0,1],[0,1,1,1,0,0,0,1,1,0,1,0,1,1,1,1,1,1,0,0],[1,1,1,1,0,0,1,0,1,0,1,0,1,0,1,1,0,0,1,0],[0,1,0,1,0,0,0,1,0,0,1,1,0,1,0,1,1,1,0,0],[0,1,0,0,1,0,0,0,0,1,0,0,1,0,0,1,0,1,1,0],[1,1,1,0,1,0,1,1,0,0,0,0,1,0,0,0,1,0,1,0],[0,0,0,0,1,0,1,0,1,0,0,0,0,0,1,0,1,0,0,0],[0,0,0,1,0,0,1,1,1,1,0,0,1,1,1,1,1,0,0,1],[0,0,0,0,1,1,1,1,0,0,1,0,1,0,1,1,1,1,0,0],[0,1,1,0,0,0,0,1,1,1,0,0,0,1,0,0,1,0,0,1],[1,0,1,1,1,1,1,1,1,0,0,0,1,1,1,0,0,0,0,1],[0,1,0,1,1,1,1,0,1,1,0,0,0,1,0,1,0,0,1,1]],"displayWidth":172,"displayHeight":172,"spacing":100,"style":{"gridBorderColor":"#ffffff","gridBorderWidth":"3","dotColor":"#ffffff","dotLineWidth":"1"}},"pluginResponse":[{"startTime":167652.00000000186,"rt":2360.0000001024455,"response":[{"id":0,"name":"Left","answer":45,"prompt":"Left","lastChangedTime":169489.0000000596},{"id":1,"name":"Right","answer":"50","prompt":"Right","lastChangedTime":null}],"stimulusOffTime":902.0000000018626,"trial_type":"canvas-sliders-response","trial_index":75,"time_elapsed":169770,"internal_node_id":"0.0-15.0-0.4"},{"choiceTime":722.0000000670552,"choice":2,"totalTime":2723.9999999292195,"image":"http://localhost:8080/ExploringSocialMetacognition/assets/image/advisor3.png","adviceTime":2001.9999998621643,"trial_type":"jspsych-jas-present-advice-choice","trial_index":76,"time_elapsed":172495,"internal_node_id":"0.0-15.0-1.4"},{"startTime":172738.00000012852,"rt":1037.0000000111759,"response":[{"id":0,"name":"Left","answer":23,"prompt":"Left","lastChangedTime":173290.99999996834},{"id":1,"name":"Right","answer":"50","prompt":"Right","lastChangedTime":null}],"trial_type":"canvas-sliders-response","trial_index":77,"time_elapsed":173533,"internal_node_id":"0.0-15.0-2.4"}],"confidenceCategory":1,"advisorAgrees":false,"advice":{"filePath":"assets/audio/voices/2/think_right.wav","string":"I think it was on the RIGHT","loaded":true,"loading":true,"data":null,"buffer":{},"side":1,"confidence":0}},{"type":2,"typeName":"choice","block":3,"advisorId":2,"choice":[3,2],"answer":[0,0],"confidence":[66,37],"whichSide":1,"practice":false,"feedback":false,"warnings":[],"stimulusDrawTime":[174677.00000014156],"stimulusOffTime":[900.0000001396984,null],"fixationDrawTime":[174178.00000007264],"id":25,"dotDifference":6,"grid":{"dotCountL":194,"dotCountR":206,"gridWidth":20,"gridHeight":20,"dotWidth":2,"dotHeight":2,"paddingX":6,"paddingY":6,"gridL":[[0,0,0,1,1,1,0,1,0,1,0,0,1,0,0,0,0,0,0,1],[0,1,1,0,1,0,0,1,0,0,1,0,0,1,0,0,1,0,0,1],[1,0,0,1,1,1,1,0,0,0,1,1,1,1,1,0,1,0,1,1],[1,0,1,1,0,1,0,1,0,1,1,0,0,0,1,1,0,0,1,0],[0,0,1,1,0,1,1,1,0,1,1,1,1,0,1,1,1,0,1,0],[1,1,0,1,1,0,1,0,1,0,0,0,0,1,0,1,1,0,0,1],[0,0,0,1,0,1,0,0,1,1,1,0,1,0,1,0,0,0,0,0],[1,1,1,0,0,0,1,0,1,0,1,1,1,1,0,1,0,0,0,1],[1,1,1,0,1,1,0,1,0,1,0,0,1,1,0,1,0,1,1,1],[1,0,0,0,0,1,1,0,1,0,0,0,1,1,0,1,1,0,1,0],[0,0,0,0,0,1,1,0,1,0,1,1,1,1,1,1,1,1,0,1],[1,1,1,0,0,0,0,0,0,0,1,1,1,1,0,1,1,0,0,0],[1,0,1,1,1,1,0,0,0,0,0,1,1,1,1,1,0,0,0,0],[1,0,1,0,0,0,1,0,1,1,0,0,1,0,0,0,0,0,1,0],[1,1,0,1,0,0,1,1,1,0,1,0,1,0,1,1,1,1,0,1],[1,0,1,0,1,1,1,1,1,1,0,0,0,1,1,1,1,1,1,0],[0,1,1,0,1,0,1,0,0,1,0,0,0,0,0,0,1,1,1,0],[0,1,1,0,0,0,0,1,0,0,1,0,0,0,0,0,0,1,0,1],[0,1,0,0,1,1,0,0,0,1,0,1,1,1,0,1,0,1,0,0],[0,1,0,1,0,0,1,1,0,0,0,0,0,0,0,0,1,0,0,0]],"gridR":[[1,0,0,1,0,1,1,1,1,0,1,1,1,1,1,0,1,0,0,1],[1,0,1,0,0,1,1,0,1,1,0,0,1,0,0,1,1,1,0,1],[1,1,1,1,1,0,0,1,0,0,1,1,1,0,1,0,1,1,1,1],[1,0,1,1,0,1,1,0,0,0,1,1,0,0,1,0,0,1,1,1],[1,0,1,1,0,0,0,0,0,0,1,0,1,1,1,0,1,1,1,0],[0,0,0,0,1,0,0,0,0,0,1,1,1,1,1,1,1,1,0,1],[0,0,0,1,1,1,0,1,0,0,0,0,0,1,1,0,0,0,0,1],[0,1,0,0,1,1,1,0,1,0,1,1,0,0,1,1,1,0,1,1],[1,1,0,0,1,1,1,1,1,1,1,1,0,1,1,1,1,0,0,1],[0,0,0,1,1,0,1,0,0,1,0,1,1,1,1,1,1,1,1,0],[0,1,0,1,0,0,0,1,1,0,0,1,1,1,0,0,0,1,1,0],[1,0,0,1,1,0,1,0,0,1,0,0,1,1,0,0,1,0,0,1],[1,1,0,1,1,1,0,1,1,1,1,1,0,0,0,1,0,0,1,0],[0,0,0,1,0,1,0,0,1,1,0,1,0,0,0,0,1,0,0,0],[1,0,0,0,0,1,1,0,0,0,0,0,1,0,0,1,0,0,1,0],[0,1,1,1,0,0,1,0,0,1,1,0,1,0,1,1,1,1,0,1],[1,1,1,1,1,1,0,1,0,1,0,1,1,1,1,0,0,0,1,1],[0,0,0,1,1,0,0,0,0,1,0,1,0,0,1,1,1,0,1,0],[0,1,0,1,0,0,0,0,0,0,0,1,0,0,1,0,0,0,1,1],[1,0,1,0,1,0,0,0,0,1,0,0,1,0,1,1,1,0,1,0]],"displayWidth":172,"displayHeight":172,"spacing":100,"style":{"gridBorderColor":"#ffffff","gridBorderWidth":"3","dotColor":"#ffffff","dotLineWidth":"1"}},"pluginResponse":[{"startTime":173976.9999999553,"rt":2273.9999999757856,"response":[{"id":0,"name":"Left","answer":66,"prompt":"Left","lastChangedTime":175672.0000000205},{"id":1,"name":"Right","answer":"50","prompt":"Right","lastChangedTime":null}],"stimulusOffTime":900.0000001396984,"trial_type":"canvas-sliders-response","trial_index":78,"time_elapsed":176010,"internal_node_id":"0.0-15.0-0.5"},{"choiceTime":895.9999999497086,"choice":2,"totalTime":2898.0000000447035,"image":"http://localhost:8080/ExploringSocialMetacognition/assets/image/advisor3.png","adviceTime":2002.000000094995,"trial_type":"jspsych-jas-present-advice-choice","trial_index":79,"time_elapsed":178909,"internal_node_id":"0.0-15.0-1.5"},{"startTime":179152.00000000186,"rt":1461.0000001266599,"response":[{"id":0,"name":"Left","answer":37,"prompt":"Left","lastChangedTime":180023.9999999758},{"id":1,"name":"Right","answer":"50","prompt":"Right","lastChangedTime":null}],"trial_type":"canvas-sliders-response","trial_index":80,"time_elapsed":180371,"internal_node_id":"0.0-15.0-2.5"}],"confidenceCategory":2,"advisorAgrees":true,"advice":{"filePath":"assets/audio/voices/2/think_right.wav","string":"I think it was on the RIGHT","loaded":true,"loading":true,"data":null,"buffer":{},"side":1,"confidence":0}},{"type":1,"typeName":"force","block":3,"advisorId":2,"choice":[],"answer":[0,0],"confidence":[5,37],"whichSide":1,"practice":false,"feedback":false,"warnings":[],"stimulusDrawTime":[181516.00000006147],"stimulusOffTime":[900.9999998379499,null],"fixationDrawTime":[181016.99999999255],"id":26,"dotDifference":9,"grid":{"dotCountL":191,"dotCountR":209,"gridWidth":20,"gridHeight":20,"dotWidth":2,"dotHeight":2,"paddingX":6,"paddingY":6,"gridL":[[0,0,0,0,1,0,0,1,0,1,0,0,0,0,0,0,0,1,1,1],[1,1,1,0,1,0,0,1,1,0,0,0,0,1,0,1,0,0,0,1],[1,0,1,0,0,0,1,0,1,0,1,0,1,0,1,1,1,1,0,0],[0,1,0,0,0,0,0,0,1,0,0,0,0,1,1,0,1,1,1,0],[0,0,1,0,0,0,1,0,1,1,0,0,0,0,0,1,1,1,1,0],[1,1,0,0,1,0,0,0,1,0,0,1,0,0,0,0,1,0,1,1],[1,0,1,1,0,0,0,1,0,0,0,1,1,1,1,0,1,0,1,0],[1,0,1,1,1,0,1,1,1,1,1,1,0,1,1,1,1,1,1,0],[0,0,1,1,0,0,1,0,0,1,1,1,0,1,1,0,0,0,1,1],[0,1,0,0,1,1,0,0,1,0,1,0,1,0,1,0,0,0,1,1],[1,0,0,0,1,0,1,1,1,0,1,0,1,0,1,0,1,0,0,0],[0,1,1,1,0,0,0,1,0,1,0,0,1,1,0,0,1,0,0,0],[0,0,0,1,0,1,0,0,0,0,1,1,1,0,1,0,0,1,0,0],[0,1,0,1,0,1,0,1,0,0,1,1,1,1,0,0,1,1,0,0],[1,0,0,0,0,0,1,0,1,0,0,0,0,1,0,0,0,1,1,1],[1,0,1,0,1,1,0,1,1,1,0,0,1,0,1,1,1,1,0,0],[0,0,0,0,0,1,1,1,1,0,1,1,1,0,1,0,1,1,1,0],[0,0,1,1,1,1,1,1,0,1,0,0,0,0,1,1,1,0,1,0],[1,0,0,1,0,0,1,0,0,1,0,0,1,1,1,0,0,1,1,1],[1,0,1,0,1,1,1,0,1,1,1,1,1,1,0,0,1,1,0,0]],"gridR":[[1,0,1,1,1,1,1,0,0,1,1,0,0,1,0,1,1,1,1,1],[0,0,1,0,0,1,0,0,1,0,0,1,1,1,1,1,0,1,1,0],[0,1,1,1,1,0,0,0,1,0,1,1,0,0,0,1,1,1,1,0],[0,0,0,0,1,1,1,0,0,0,0,0,1,0,1,0,1,1,0,0],[1,0,1,1,0,0,0,1,1,1,1,0,1,1,0,1,1,1,0,1],[0,1,0,1,1,0,0,1,0,0,1,0,1,1,1,0,1,1,0,1],[1,0,0,1,0,1,0,1,0,0,1,0,1,1,0,0,1,1,0,0],[0,1,1,1,0,0,0,0,1,1,1,1,1,0,1,0,1,1,1,1],[1,0,1,0,1,0,0,1,1,0,0,0,1,1,1,0,0,1,0,0],[0,1,1,0,0,0,1,1,1,1,1,0,0,0,0,0,1,0,0,1],[0,1,1,1,0,0,1,1,0,1,0,0,1,1,1,1,0,1,1,1],[0,0,0,0,1,1,0,0,1,0,1,1,0,0,1,0,1,1,0,1],[0,1,0,0,0,1,1,0,1,0,1,0,0,0,1,1,1,1,0,1],[1,1,1,0,0,1,0,1,0,1,0,0,1,1,0,1,0,1,1,1],[1,0,0,1,1,1,1,0,0,0,0,1,0,0,0,0,0,1,1,1],[1,0,0,1,1,1,1,1,1,0,0,0,0,0,0,1,0,0,0,1],[1,1,1,0,0,1,0,0,1,0,1,1,0,0,1,0,0,1,0,1],[1,0,1,1,0,0,0,1,0,0,0,1,1,1,0,0,0,0,0,1],[1,0,0,1,0,0,0,1,1,0,1,1,0,1,0,1,0,1,1,1],[1,0,1,0,1,1,1,0,1,1,1,0,0,0,1,0,0,1,1,1]],"displayWidth":172,"displayHeight":172,"spacing":100,"style":{"gridBorderColor":"#ffffff","gridBorderWidth":"3","dotColor":"#ffffff","dotLineWidth":"1"}},"pluginResponse":[{"startTime":180816.00000010803,"rt":2693.99999990128,"response":[{"id":0,"name":"Left","answer":5,"prompt":"Left","lastChangedTime":182722.00000006706},{"id":1,"name":"Right","answer":"50","prompt":"Right","lastChangedTime":null}],"stimulusOffTime":900.9999998379499,"trial_type":"canvas-sliders-response","trial_index":81,"time_elapsed":183268,"internal_node_id":"0.0-15.0-0.6"},{"choiceTime":0,"choice":2,"totalTime":2003.000000026077,"image":"http://localhost:8080/ExploringSocialMetacognition/assets/image/advisor3.png","adviceTime":2003.000000026077,"trial_type":"jspsych-jas-present-advice-choice","trial_index":82,"time_elapsed":185271,"internal_node_id":"0.0-15.0-1.6"},{"startTime":185513.99999996647,"rt":1898.0000000447035,"response":[{"id":0,"name":"Left","answer":37,"prompt":"Left","lastChangedTime":186800.00000004657},{"id":1,"name":"Right","answer":"50","prompt":"Right","lastChangedTime":null}],"trial_type":"canvas-sliders-response","trial_index":83,"time_elapsed":187170,"internal_node_id":"0.0-15.0-2.6"}],"confidenceCategory":1,"advisorAgrees":false,"advice":{"filePath":"assets/audio/voices/2/left_think.wav","string":"It was on the LEFT, I think","loaded":true,"loading":true,"data":null,"buffer":{},"side":0,"confidence":0}},{"type":1,"typeName":"force","block":3,"advisorId":3,"choice":[],"answer":[1,1],"confidence":[6,29],"whichSide":0,"practice":false,"feedback":false,"warnings":[],"stimulusDrawTime":[188313.00000008196],"stimulusOffTime":[899.9999999068677,null],"fixationDrawTime":[187813.00000008196],"id":27,"dotDifference":12,"grid":{"dotCountL":212,"dotCountR":188,"gridWidth":20,"gridHeight":20,"dotWidth":2,"dotHeight":2,"paddingX":6,"paddingY":6,"gridL":[[1,0,0,1,0,1,0,1,1,1,0,0,1,0,0,0,0,0,0,1],[0,1,0,0,0,1,1,1,0,1,1,0,0,1,0,1,1,1,0,0],[0,0,0,0,1,1,0,1,0,0,1,1,1,0,1,0,0,0,1,1],[1,1,1,0,1,0,0,0,0,1,0,0,0,0,1,1,1,0,0,0],[1,1,0,1,1,0,0,0,1,1,1,1,0,0,1,0,0,1,1,1],[1,0,0,1,1,0,1,1,1,0,0,1,1,1,1,0,1,1,1,0],[0,0,0,1,1,1,1,0,0,0,1,1,1,1,0,0,1,1,0,1],[0,1,1,0,1,0,1,1,1,0,1,1,1,0,0,1,0,0,1,0],[1,0,1,1,1,1,0,0,0,1,1,1,1,1,1,0,0,0,1,1],[0,0,1,1,1,1,0,1,1,1,1,1,0,1,1,0,0,1,1,0],[1,0,0,0,1,1,1,1,1,1,1,0,0,1,1,1,0,0,0,1],[1,0,1,1,0,1,0,0,1,0,1,1,1,0,1,1,1,0,0,0],[1,1,0,1,1,0,1,0,0,0,1,1,1,1,0,0,0,1,1,1],[1,1,1,1,0,0,0,1,1,0,0,1,1,1,0,1,1,0,1,0],[0,1,0,0,0,1,0,1,1,1,0,0,0,1,1,0,1,0,1,1],[1,0,1,1,0,1,1,0,1,1,0,1,1,0,1,0,0,0,0,1],[0,1,0,0,1,1,1,0,1,0,0,0,0,0,0,1,1,0,0,1],[0,0,1,0,0,1,0,0,0,0,1,1,1,0,1,0,1,1,1,0],[0,1,1,0,1,0,0,0,0,0,0,0,0,1,1,1,1,0,0,0],[0,1,0,0,1,0,1,0,0,0,1,0,1,1,1,1,1,1,1,1]],"gridR":[[1,1,1,0,1,0,0,1,0,0,1,1,0,0,0,0,0,1,1,0],[1,1,0,1,1,1,1,0,1,1,0,0,0,0,1,1,1,0,1,1],[1,0,1,1,1,0,1,1,1,1,0,1,1,0,0,1,1,1,0,0],[0,1,1,0,0,0,1,1,1,1,0,0,0,1,1,1,1,1,0,1],[0,0,1,1,0,1,1,0,1,1,0,0,0,1,1,0,0,0,0,0],[1,0,0,1,0,1,0,0,1,1,0,0,0,1,0,0,1,1,1,1],[1,1,1,0,1,0,1,0,0,0,0,0,1,0,1,0,1,0,0,1],[0,1,0,0,1,1,1,0,1,1,1,0,0,0,1,0,1,1,0,0],[1,1,0,1,1,0,0,0,0,0,1,1,0,0,1,1,0,1,1,0],[0,0,1,1,1,1,0,1,0,1,1,0,1,0,0,1,0,1,0,1],[0,1,0,1,1,0,0,0,0,1,1,0,1,1,0,0,1,0,0,1],[1,0,1,1,1,0,1,0,0,1,0,1,0,1,0,0,1,0,0,0],[1,0,0,0,0,1,0,0,0,1,0,0,1,0,0,0,1,1,1,0],[0,0,0,0,1,1,1,1,0,0,1,1,0,0,0,0,1,0,0,0],[1,1,1,1,1,0,0,0,1,1,0,0,0,1,0,0,0,0,1,0],[1,0,0,1,1,0,1,0,0,1,0,1,1,1,0,0,1,1,0,1],[0,1,1,0,1,0,0,0,1,0,0,1,0,0,1,0,0,1,0,0],[0,0,0,1,0,0,0,0,1,1,0,1,0,1,1,1,0,1,0,1],[0,1,0,1,1,0,1,0,1,0,0,1,1,0,1,0,0,0,0,1],[0,1,1,1,0,0,0,1,0,0,0,0,0,0,1,0,1,0,0,0]],"displayWidth":172,"displayHeight":172,"spacing":100,"style":{"gridBorderColor":"#ffffff","gridBorderWidth":"3","dotColor":"#ffffff","dotLineWidth":"1"}},"pluginResponse":[{"startTime":187613.00000012852,"rt":2841.9999999459833,"response":[{"id":0,"name":"Left","answer":50,"prompt":"Left","lastChangedTime":null},{"id":1,"name":"Right","answer":"6","prompt":"Right","lastChangedTime":190000.99999993108}],"stimulusOffTime":899.9999999068677,"trial_type":"canvas-sliders-response","trial_index":84,"time_elapsed":190212,"internal_node_id":"0.0-15.0-0.7"},{"choiceTime":0,"choice":3,"totalTime":2002.000000094995,"image":"http://localhost:8080/ExploringSocialMetacognition/assets/image/advisor1.png","adviceTime":2002.000000094995,"trial_type":"jspsych-jas-present-advice-choice","trial_index":85,"time_elapsed":192216,"internal_node_id":"0.0-15.0-1.7"},{"startTime":192459.00000003166,"rt":1730.9999999124557,"response":[{"id":0,"name":"Left","answer":50,"prompt":"Left","lastChangedTime":null},{"id":1,"name":"Right","answer":"29","prompt":"Right","lastChangedTime":193397.00000011362}],"trial_type":"canvas-sliders-response","trial_index":86,"time_elapsed":193947,"internal_node_id":"0.0-15.0-2.7"}],"confidenceCategory":1,"advisorAgrees":false,"advice":{"filePath":"assets/audio/voices/1/right_think.wav","string":"It was on the RIGHT, I think","loaded":true,"loading":true,"data":null,"buffer":{},"side":1,"confidence":0}},{"type":2,"typeName":"choice","block":3,"advisorId":2,"choice":[2,3],"answer":[0,0],"confidence":[38,70],"whichSide":0,"practice":false,"feedback":false,"warnings":[],"stimulusDrawTime":[195091.0000000149],"stimulusOffTime":[899.9999999068677,null],"fixationDrawTime":[194591.0000000149],"id":28,"dotDifference":15,"grid":{"dotCountL":215,"dotCountR":185,"gridWidth":20,"gridHeight":20,"dotWidth":2,"dotHeight":2,"paddingX":6,"paddingY":6,"gridL":[[0,1,0,0,0,1,1,0,1,0,1,1,1,0,0,1,1,1,0,1],[0,1,0,0,1,1,1,1,0,0,0,1,0,0,1,0,1,1,1,1],[1,0,0,1,1,1,1,0,0,0,0,0,1,0,1,1,1,1,1,1],[0,0,0,1,1,0,1,1,0,0,0,1,1,1,1,0,1,1,0,0],[0,1,1,0,0,1,0,1,0,0,1,1,1,1,0,0,0,0,0,0],[0,1,1,1,1,1,1,1,0,0,0,0,1,1,0,1,1,1,0,0],[0,1,1,0,0,1,0,1,0,1,1,1,1,1,1,1,0,0,0,1],[0,1,0,0,0,0,1,1,1,1,0,0,1,1,