{"timeStart":1520350828665,"dotCount":200,"dotDifference":1,"difficultyStep":3,"advisors":[{"id":1,"adviceType":0,"voice":{"basePath":"","id":1,"name":"Annie","lines":{"think_left":{"filePath":"assets/audio/voices/1/think_left.wav","string":"I think it was on the LEFT","loaded":true,"loading":true,"data":null,"buffer":{},"side":0,"confidence":0},"think_right":{"filePath":"assets/audio/voices/1/think_right.wav","string":"I think it was on the RIGHT","loaded":true,"loading":true,"data":null,"buffer":{},"side":1,"confidence":0},"left_think":{"filePath":"assets/audio/voices/1/left_think.wav","string":"It was on the LEFT, I think","loaded":true,"loading":true,"data":null,"buffer":{},"side":0,"confidence":0},"right_think":{"filePath":"assets/audio/voices/1/right_think.wav","string":"It was on the RIGHT, I think","loaded":true,"loading":true,"data":null,"buffer":{},"side":1,"confidence":0},"intro":{"filePath":"assets/audio/voices/1/intro.wav","string":"Hello, my name is ANNIE","loaded":true,"loading":true,"data":null,"buffer":{},"side":false}}},"name":"Annie","portrait":{},"portraitSrc":"http://localhost:8080/ExploringSocialMetacognition/assets/image/advisor2.png"},{"id":3,"adviceType":2,"voice":{"basePath":"","id":2,"name":"Bea","lines":{"think_left":{"filePath":"assets/audio/voices/2/think_left.wav","string":"I think it was on the LEFT","loaded":true,"loading":true,"data":null,"buffer":{},"side":0,"confidence":0},"think_right":{"filePath":"assets/audio/voices/2/think_right.wav","string":"I think it was on the RIGHT","loaded":true,"loading":true,"data":null,"buffer":{},"side":1,"confidence":0},"left_think":{"filePath":"assets/audio/voices/2/left_think.wav","string":"It was on the LEFT, I think","loaded":true,"loading":true,"data":null,"buffer":{},"side":0,"confidence":0},"right_think":{"filePath":"assets/audio/voices/2/right_think.wav","string":"It was on the RIGHT, I think","loaded":true,"loading":true,"data":null,"buffer":{},"side":1,"confidence":0},"intro":{"filePath":"assets/audio/voices/2/intro.wav","string":"Hello, my name is BEA","loaded":true,"loading":true,"data":null,"buffer":{},"side":false}}},"name":"Bea","portrait":{},"portraitSrc":"http://localhost:8080/ExploringSocialMetacognition/assets/image/advisor1.png"},{"id":2,"adviceType":1,"voice":{"basePath":"","id":3,"name":"Kate","lines":{"think_left":{"filePath":"assets/audio/voices/3/think_left.wav","string":"I think it was on the LEFT","loaded":true,"loading":true,"data":null,"buffer":{},"side":0,"confidence":0},"think_right":{"filePath":"assets/audio/voices/3/think_right.wav","string":"I think it was on the RIGHT","loaded":true,"loading":true,"data":null,"buffer":{},"side":1,"confidence":0},"left_think":{"filePath":"assets/audio/voices/3/left_think.wav","string":"It was on the LEFT, I think","loaded":true,"loading":true,"data":null,"buffer":{},"side":0,"confidence":0},"right_think":{"filePath":"assets/audio/voices/3/right_think.wav","string":"It was on the RIGHT, I think","loaded":true,"loading":true,"data":null,"buffer":{},"side":1,"confidence":0},"intro":{"filePath":"assets/audio/voices/3/intro.wav","string":"Hello, my name is KATE","loaded":true,"loading":true,"data":null,"buffer":{},"side":false}}},"name":"Kate","portrait":{},"portraitSrc":"http://localhost:8080/ExploringSocialMetacognition/assets/image/advisor3.png"}],"blockCount":2,"blockStructure":{"0":0,"1":6,"2":6},"blockLength":12,"practiceBlockCount":1,"practiceBlockStructure":{"0":0,"1":4,"2":0},"practiceBlockLength":4,"preTrialInterval":200,"preStimulusInterval":500,"stimulusDuration":200,"feedbackDuration":200,"questionnaireFrequency":4,"questionnaireStack":[],"miscTrials":[{"view_history":"[{\"page_index\":0,\"viewing_time\":1076},{\"page_index\":1,\"viewing_time\":872}]","rt":1949,"trial_type":"instructions","trial_index":0,"time_elapsed":1950,"internal_node_id":"0.0-0.0"},{"view_history":"[{\"page_index\":0,\"viewing_time\":799}]","rt":800,"trial_type":"instructions","trial_index":2,"time_elapsed":5363,"internal_node_id":"0.0-2.0"},{"view_history":"[{\"page_index\":0,\"viewing_time\":662}]","rt":663,"trial_type":"instructions","trial_index":4,"time_elapsed":8294,"internal_node_id":"0.0-4.0"},{"view_history":"[{\"page_index\":0,\"viewing_time\":638}]","rt":639,"trial_type":"instructions","trial_index":8,"time_elapsed":15506,"internal_node_id":"0.0-6.0"},{"view_history":"[{\"page_index\":0,\"viewing_time\":772}]","rt":772,"trial_type":"instructions","trial_index":22,"time_elapsed":41876,"internal_node_id":"0.0-9.0"},{"view_history":"[{\"page_index\":0,\"viewing_time\":1263}]","rt":1264,"trial_type":"instructions","trial_index":23,"time_elapsed":43140,"internal_node_id":"0.0-10.0"},{"view_history":"[{\"page_index\":0,\"viewing_time\":771}]","rt":771,"trial_type":"instructions","trial_index":62,"time_elapsed":177235,"internal_node_id":"0.0-14.0"}],"trials":[{"type":1,"typeName":"force","block":1,"advisorId":0,"choice":[],"answer":[0,null],"confidence":[42,null],"whichSide":0,"practice":true,"feedback":true,"warnings":[],"stimulusDrawTime":[2871.0000002756715],"stimulusOffTime":[null],"fixationDrawTime":[2371.0000002756715],"id":1,"dotDifference":30,"grid":{"dotCountL":230,"dotCountR":170,"gridWidth":20,"gridHeight":20,"dotWidth":2,"dotHeight":2,"paddingX":6,"paddingY":6,"gridL":[[0,1,0,1,0,1,1,1,1,1,1,1,1,1,1,0,1,1,0,1],[1,1,1,1,0,1,1,1,1,0,0,1,1,1,0,1,1,0,0,0],[1,1,0,1,1,0,1,0,1,0,1,1,1,0,1,0,0,0,0,0],[1,1,1,1,1,1,0,0,0,1,0,1,1,0,0,1,0,1,0,0],[1,1,1,1,0,0,0,0,1,1,1,0,1,0,1,1,1,1,1,0],[0,1,0,1,1,1,1,1,1,1,1,0,1,0,1,0,1,1,1,1],[0,1,0,0,1,1,0,0,0,1,1,1,0,0,1,0,1,1,1,0],[1,0,0,1,0,1,0,0,0,1,0,0,0,0,1,0,1,1,1,1],[1,1,1,0,0,1,0,0,0,0,1,1,1,1,1,0,0,1,0,1],[0,0,0,1,0,0,0,1,1,1,0,1,1,1,0,0,1,1,1,1],[0,1,0,1,0,1,0,1,1,0,1,1,0,0,1,1,1,0,1,1],[0,0,0,0,1,1,1,1,1,0,1,0,1,0,0,1,0,1,0,1],[1,1,0,1,0,0,1,1,0,1,0,0,1,0,0,0,0,1,0,1],[0,0,1,1,0,0,0,1,1,1,0,1,1,0,0,0,1,1,0,1],[0,0,1,1,0,1,0,1,1,1,1,0,1,0,0,1,1,0,0,1],[0,1,0,1,1,1,0,1,1,0,0,1,1,1,1,0,1,0,0,0],[0,1,1,0,1,0,0,1,1,0,1,0,0,1,0,0,1,1,1,0],[1,0,1,1,0,0,0,0,0,1,0,1,1,1,0,1,0,1,1,1],[1,1,1,1,1,1,0,0,1,1,1,1,1,1,1,0,0,0,1,1],[1,1,1,1,1,0,0,1,1,0,1,1,1,0,0,1,1,1,0,0]],"gridR":[[0,1,1,0,0,0,0,0,0,0,1,1,0,1,1,0,0,1,0,1],[0,1,0,0,0,0,1,1,0,0,0,0,0,1,1,0,1,1,0,1],[0,0,0,1,1,1,0,1,0,0,1,0,0,1,1,1,0,1,1,1],[1,0,1,0,1,1,1,1,0,0,0,1,0,0,0,0,0,1,0,1],[0,1,1,0,1,0,1,0,0,0,1,1,0,1,1,0,0,1,0,1],[1,0,1,0,0,0,0,1,0,0,0,1,1,0,1,0,0,0,0,0],[1,0,1,0,0,0,1,1,0,0,0,0,0,1,0,0,0,1,1,1],[1,0,0,0,1,0,0,0,0,0,1,1,1,0,0,0,1,1,1,0],[0,1,1,0,1,0,1,0,1,0,0,1,0,0,0,0,0,0,0,1],[0,0,0,0,1,1,0,0,0,0,0,1,0,1,1,1,1,0,0,1],[1,0,1,1,0,0,0,0,0,0,1,1,0,0,1,0,0,0,0,1],[1,0,0,0,0,0,0,0,0,0,0,0,1,0,0,0,1,0,1,0],[1,0,0,1,0,1,1,1,1,1,1,0,1,0,1,0,1,1,0,1],[1,1,0,0,0,0,0,1,0,0,0,0,0,1,0,0,0,1,1,0],[0,0,0,1,1,1,1,1,0,1,1,0,1,0,0,1,1,1,0,1],[1,1,0,1,0,1,1,1,0,1,0,0,1,1,0,0,0,1,1,1],[0,0,0,1,1,0,1,1,0,0,0,0,1,0,1,1,1,0,1,1],[0,0,0,1,1,1,1,1,1,0,0,0,0,0,0,0,0,1,1,0],[0,0,0,0,1,1,0,0,1,0,1,0,0,1,0,1,0,0,1,1],[1,1,0,1,1,0,0,0,0,0,1,0,0,0,0,0,0,1,1,0]],"displayWidth":172,"displayHeight":172,"spacing":100,"style":{"gridBorderColor":"#ffffff","gridBorderWidth":"3","dotColor":"#ffffff","dotLineWidth":"1"}},"pluginResponse":[{"startTime":2171.000000089407,"rt":2410.0000001490116,"response":[{"id":0,"name":"Left","answer":42,"prompt":"Left","lastChangedTime":4026.0000000707805},{"id":1,"name":"Right","answer":"50","prompt":"Right","lastChangedTime":null}],"trial_type":"canvas-sliders-response","trial_index":1,"time_elapsed":4363,"internal_node_id":"0.0-1.0"}]},{"type":1,"typeName":"force","block":1,"advisorId":0,"choice":[],"answer":[0,null],"confidence":[66,null],"whichSide":0,"practice":true,"feedback":true,"warnings":[],"stimulusDrawTime":[6283.000000286847],"stimulusOffTime":[null],"fixationDrawTime":[5783.999999985099],"id":2,"dotDifference":30,"grid":{"dotCountL":230,"dotCountR":170,"gridWidth":20,"gridHeight":20,"dotWidth":2,"dotHeight":2,"paddingX":6,"paddingY":6,"gridL":[[1,0,0,1,1,0,1,1,0,1,0,1,0,1,0,0,1,1,1,0],[1,0,0,0,1,0,1,0,0,1,0,0,1,0,0,0,1,0,0,1],[0,1,1,1,0,0,0,1,0,1,0,0,1,0,1,1,1,1,0,1],[1,1,1,1,0,0,1,0,0,0,0,0,0,1,1,0,1,0,1,1],[0,1,1,0,1,0,1,1,0,1,1,1,1,0,1,1,1,0,1,1],[0,0,1,0,0,1,1,1,1,0,1,0,0,1,1,1,1,0,1,0],[1,0,1,1,1,1,1,1,1,1,1,0,1,1,1,0,1,1,0,1],[1,1,0,0,0,1,1,1,1,0,0,1,1,1,0,0,0,0,1,1],[1,0,1,1,0,1,1,0,0,1,1,1,1,1,1,1,1,1,1,1],[1,0,1,0,1,1,1,0,0,1,0,1,1,1,0,1,1,0,0,0],[1,1,0,0,0,0,0,1,1,1,0,1,1,1,1,0,1,1,0,1],[0,0,0,0,1,0,0,1,1,1,1,0,1,1,1,1,0,0,1,1],[0,1,1,0,1,0,1,1,1,0,1,1,1,1,1,0,1,1,1,1],[1,1,0,1,0,1,0,0,0,1,1,1,0,0,0,1,1,1,1,1],[0,1,1,0,0,0,1,1,0,1,0,1,0,1,1,0,1,1,0,0],[1,1,0,1,0,1,0,1,0,1,1,1,0,1,1,0,1,0,0,1],[0,0,0,0,0,0,1,1,1,1,0,0,1,1,0,1,1,1,0,1],[0,1,1,1,0,0,1,0,0,1,1,1,1,0,0,1,1,0,1,0],[1,0,0,1,0,1,0,1,0,0,0,0,0,1,1,0,1,1,1,0],[0,1,1,0,1,0,1,0,0,1,1,0,0,0,0,0,1,1,1,1]],"gridR":[[1,1,0,0,0,1,1,0,0,1,0,0,1,0,0,1,0,1,1,1],[1,1,0,1,1,0,0,0,0,0,1,1,0,0,0,0,1,0,0,0],[1,1,0,1,0,1,0,0,0,1,0,1,0,0,0,0,0,0,0,0],[0,0,1,1,1,1,1,0,0,0,1,0,1,0,0,1,1,1,1,1],[0,1,0,1,1,1,0,1,0,0,1,1,0,0,0,0,0,0,1,1],[0,1,0,1,0,1,0,1,0,1,0,0,0,1,0,1,1,1,0,1],[0,0,1,0,0,0,0,1,0,1,0,1,0,1,0,0,0,0,0,1],[1,0,0,1,0,0,1,0,1,0,0,0,1,0,0,1,0,1,1,1],[0,0,0,1,0,0,0,0,0,1,1,1,1,0,1,1,0,0,0,0],[0,0,0,1,0,0,1,0,1,1,0,1,0,1,0,1,0,1,1,0],[1,0,1,0,1,0,1,1,0,0,0,0,1,1,1,0,0,1,0,0],[0,0,0,1,0,0,1,0,0,0,1,0,1,0,0,0,0,1,0,0],[1,1,1,0,0,1,1,1,0,1,1,1,0,0,0,0,1,0,0,0],[0,1,1,0,0,1,1,0,1,1,1,0,0,1,1,1,1,0,0,0],[0,1,1,1,1,1,0,1,0,0,1,0,0,1,0,1,0,0,1,1],[0,1,1,1,0,1,0,0,1,0,1,1,0,0,1,1,0,0,0,0],[0,1,1,0,0,1,0,1,0,1,0,0,1,0,0,0,0,0,0,0],[0,0,1,0,0,0,0,1,1,0,1,1,1,0,0,0,1,0,1,1],[0,0,1,1,1,0,0,1,0,0,0,1,0,0,0,0,0,1,1,0],[1,0,1,1,0,0,0,1,0,0,0,0,1,0,1,1,0,0,1,0]],"displayWidth":172,"displayHeight":172,"spacing":100,"style":{"gridBorderColor":"#ffffff","gridBorderWidth":"3","dotColor":"#ffffff","dotLineWidth":"1"}},"pluginResponse":[{"startTime":5583.000000100583,"rt":2067.000000271946,"response":[{"id":0,"name":"Left","answer":66,"prompt":"Left","lastChangedTime":7117.000000085682},{"id":1,"name":"Right","answer":"50","prompt":"Right","lastChangedTime":null}],"trial_type":"canvas-sliders-response","trial_index":3,"time_elapsed":7431,"internal_node_id":"0.0-3.0"}]},{"type":1,"typeName":"force","block":1,"advisorId":1,"choice":[],"answer":[0,0],"confidence":[66,35],"whichSide":0,"practice":true,"feedback":true,"warnings":["getConfidenceCategory: too few trials available to estimate confidence"],"stimulusDrawTime":[9214.000000152737],"stimulusOffTime":[null,null],"fixationDrawTime":[8714.000000152737],"id":3,"dotDifference":30,"grid":{"dotCountL":230,"dotCountR":170,"gridWidth":20,"gridHeight":20,"dotWidth":2,"dotHeight":2,"paddingX":6,"paddingY":6,"gridL":[[1,0,0,0,0,1,0,0,0,0,0,1,0,1,0,0,0,0,0,0],[1,0,1,1,1,1,1,0,0,0,0,0,0,1,1,1,1,1,1,1],[1,0,1,0,1,1,1,1,1,0,0,1,0,0,1,1,0,0,0,1],[1,1,1,1,0,1,0,0,1,0,0,0,1,1,1,1,0,0,1,1],[0,0,1,0,1,0,1,1,0,1,1,1,0,0,0,1,0,1,1,0],[1,1,1,1,0,1,0,0,0,1,0,1,0,1,1,1,0,1,1,1],[0,0,1,0,0,1,1,0,1,0,1,1,1,0,1,0,1,1,1,1],[1,0,1,0,1,1,0,1,0,0,1,0,0,0,0,1,0,1,1,1],[1,1,0,1,1,1,1,0,0,1,1,0,1,0,1,1,0,0,1,1],[0,0,1,1,1,0,1,1,0,1,1,0,1,1,1,0,0,0,1,1],[0,1,1,1,0,1,0,0,1,1,1,0,1,0,1,1,1,1,0,1],[1,1,0,1,0,0,0,0,1,0,0,0,0,0,1,0,0,1,0,1],[1,1,0,0,0,1,0,0,1,1,1,1,1,1,0,0,1,0,1,0],[0,1,1,0,1,1,1,0,1,0,1,1,0,0,0,1,1,0,0,1],[1,1,1,1,1,1,1,1,1,0,0,0,1,0,0,0,1,1,0,1],[1,1,0,0,1,1,0,1,1,1,1,1,1,1,1,0,0,1,0,0],[1,0,1,1,1,0,1,1,0,1,1,1,1,0,0,0,1,1,1,0],[0,1,0,1,1,1,0,0,0,1,1,1,1,1,0,1,1,1,0,1],[0,1,1,0,1,0,1,1,1,1,1,1,0,0,1,1,1,1,1,1],[1,1,1,1,1,0,1,1,0,1,0,0,1,0,0,1,0,0,0,1]],"gridR":[[0,0,1,0,0,0,1,0,1,0,0,1,1,1,0,0,0,1,0,0],[0,0,1,1,1,1,1,1,1,0,0,0,1,0,1,0,0,0,0,1],[0,0,1,1,0,1,1,1,0,1,0,1,0,0,0,1,1,1,0,0],[0,0,1,1,1,1,0,1,0,0,0,0,1,0,0,0,0,1,0,0],[0,1,0,0,0,1,1,0,0,0,1,0,1,0,0,0,0,0,1,0],[0,0,1,0,1,0,1,0,0,1,0,0,0,0,0,1,0,0,1,0],[0,0,0,0,0,0,0,0,0,1,1,1,0,0,0,1,0,0,0,0],[1,1,1,0,0,1,1,1,1,0,0,1,0,0,0,1,0,1,0,1],[0,1,0,0,0,0,0,0,1,0,0,1,1,1,0,0,0,1,0,1],[1,0,0,1,1,1,1,0,1,1,1,0,1,0,1,0,0,0,0,1],[0,1,0,0,1,1,1,1,0,1,0,0,0,1,0,1,1,1,0,1],[1,0,1,1,0,1,0,0,1,1,1,0,1,1,0,1,0,0,0,1],[0,1,0,0,0,0,0,1,1,0,0,1,0,0,1,0,1,1,0,0],[0,0,0,1,0,1,1,1,1,0,1,0,0,1,0,0,0,0,1,0],[0,0,0,0,1,0,1,0,0,1,0,0,0,1,0,0,0,1,0,0],[1,1,1,0,1,1,0,1,1,0,1,0,0,1,0,1,0,0,0,1],[0,0,0,1,0,1,0,1,1,1,1,1,0,1,0,1,0,0,0,0],[0,0,0,1,0,1,1,0,1,0,0,1,0,0,0,0,1,1,1,0],[0,0,0,0,0,0,0,1,1,1,1,0,1,1,1,0,0,1,0,1],[1,1,0,1,0,1,1,0,0,1,1,1,0,1,1,1,0,0,0,1]],"displayWidth":172,"displayHeight":172,"spacing":100,"style":{"gridBorderColor":"#ffffff","gridBorderWidth":"3","dotColor":"#ffffff","dotLineWidth":"1"}},"pluginResponse":[{"startTime":8513.00000026822,"rt":2162.9999997094274,"response":[{"id":0,"name":"Left","answer":66,"prompt":"Left","lastChangedTime":9933.000000193715},{"id":1,"name":"Right","answer":"50","prompt":"Right","lastChangedTime":null}],"trial_type":"canvas-sliders-response","trial_index":5,"time_elapsed":10458,"internal_node_id":"0.0-5.0-0.0"},{"choiceTime":0,"choice":1,"totalTime":2004.9999998882413,"image":"http://localhost:8080/ExploringSocialMetacognition/assets/image/advisor2.png","adviceTime":2004.9999998882413,"trial_type":"jspsych-jas-present-advice-choice","trial_index":6,"time_elapsed":12665,"internal_node_id":"0.0-5.0-1.0"},{"startTime":12885.000000242144,"rt":2000,"response":[{"id":0,"name":"Left","answer":35,"prompt":"Left","lastChangedTime":14280.999999959022},{"id":1,"name":"Right","answer":"50","prompt":"Right","lastChangedTime":null}],"trial_type":"canvas-sliders-response","trial_index":7,"time_elapsed":14667,"internal_node_id":"0.0-5.0-2.0"}],"confidenceCategory":1,"advisorAgrees":false,"advice":{"filePath":"assets/audio/voices/1/right_think.wav","string":"It was on the RIGHT, I think","loaded":true,"loading":true,"data":null,"buffer":{},"side":1,"confidence":0}},{"type":1,"typeName":"force","block":1,"advisorId":1,"choice":[],"answer":[1,1],"confidence":[27,45],"whichSide":1,"practice":true,"feedback":true,"warnings":[],"stimulusDrawTime":[16425.99999997765],"stimulusOffTime":[901.0000000707805,null],"fixationDrawTime":[15925.999999977648],"id":4,"dotDifference":27,"grid":{"dotCountL":173,"dotCountR":227,"gridWidth":20,"gridHeight":20,"dotWidth":2,"dotHeight":2,"paddingX":6,"paddingY":6,"gridL":[[1,0,0,0,0,0,0,0,1,0,1,0,1,1,1,1,0,0,1,0],[0,1,0,1,0,1,1,1,0,0,1,1,0,1,1,0,1,0,0,1],[1,1,1,0,0,0,0,0,0,1,0,1,0,0,1,1,0,1,1,0],[1,0,0,0,1,1,0,1,0,1,1,0,0,0,1,0,1,1,1,0],[0,0,0,0,1,0,0,0,0,0,1,0,0,1,0,1,0,0,1,0],[0,0,0,0,0,0,1,1,1,0,1,1,1,0,0,1,0,1,1,0],[0,0,0,1,0,1,0,0,0,1,0,0,0,1,0,1,0,0,1,0],[0,1,0,1,1,0,0,0,0,0,0,0,0,0,1,0,1,0,1,0],[1,0,1,0,1,0,1,0,0,0,1,1,0,0,1,1,0,1,0,0],[1,0,0,1,1,0,0,0,1,1,0,1,1,0,0,0,1,0,0,0],[0,0,1,1,0,1,1,0,0,0,1,0,0,1,0,0,1,1,0,1],[1,0,0,0,0,0,1,1,0,1,1,1,1,0,1,1,0,0,0,0],[1,0,0,1,1,0,1,1,0,0,1,0,0,0,0,0,0,0,0,0],[0,0,1,0,1,1,1,0,0,1,0,0,1,0,0,0,0,0,1,0],[0,1,0,1,0,1,1,1,0,0,1,0,1,0,0,1,0,1,0,1],[1,0,0,0,1,1,1,1,0,0,1,1,0,0,0,1,1,1,1,0],[0,1,0,1,1,1,0,1,0,0,0,1,0,1,0,0,0,1,1,1],[0,0,0,0,0,0,1,0,1,0,0,0,1,0,0,0,1,0,0,1],[1,1,0,0,0,1,1,1,0,1,0,0,1,1,0,1,1,0,0,1],[1,0,1,1,1,1,1,1,0,0,1,1,1,1,1,0,1,1,0,0]],"gridR":[[1,0,1,1,0,0,0,0,1,0,1,1,1,0,0,1,1,1,0,0],[1,0,0,0,1,1,0,1,0,1,0,0,1,1,1,0,1,0,0,1],[0,1,0,1,0,0,0,1,1,1,1,1,1,1,1,1,1,1,1,0],[1,0,0,0,0,1,1,1,1,1,1,0,1,0,0,1,1,0,1,1],[0,1,1,1,1,0,0,1,0,1,0,1,1,0,1,0,0,0,1,1],[0,1,1,1,0,0,0,1,1,1,0,1,0,1,0,0,1,1,0,1],[0,1,1,1,1,1,1,1,0,1,0,1,1,1,0,0,0,1,1,1],[0,1,1,1,0,0,1,0,1,0,1,0,1,1,1,1,0,0,0,1],[0,1,1,1,1,1,1,0,1,0,1,1,0,1,1,1,0,0,0,0],[1,1,1,0,1,0,1,1,1,1,0,0,1,0,1,1,0,0,1,0],[1,1,0,0,1,1,1,1,0,1,1,1,0,1,1,0,0,0,1,1],[1,1,0,0,1,1,1,0,0,1,1,0,0,0,1,1,1,1,0,0],[1,0,1,1,1,1,0,0,0,1,1,0,0,0,0,1,1,1,0,0],[1,1,0,0,1,0,1,1,0,0,0,1,0,1,1,1,1,0,0,0],[1,0,0,0,0,1,1,0,0,1,0,1,0,1,1,0,0,0,1,1],[1,0,1,0,1,1,1,1,0,1,1,0,0,1,1,1,1,0,0,1],[1,0,1,0,1,0,1,0,0,1,1,1,1,0,0,1,1,1,1,0],[0,1,1,0,0,0,0,1,1,0,1,1,1,0,1,0,1,1,1,1],[0,1,1,1,1,1,0,1,0,0,0,0,1,0,0,1,0,1,1,1],[1,0,0,1,0,0,0,1,1,1,1,1,0,0,1,0,1,0,0,0]],"displayWidth":172,"displayHeight":172,"spacing":100,"style":{"gridBorderColor":"#ffffff","gridBorderWidth":"3","dotColor":"#ffffff","dotLineWidth":"1"}},"pluginResponse":[{"startTime":15725.000000093132,"rt":2070.9999999962747,"response":[{"id":0,"name":"Left","answer":50,"prompt":"Left","lastChangedTime":null},{"id":1,"name":"Right","answer":"27","prompt":"Right","lastChangedTime":17388.00000026822}],"stimulusOffTime":901.0000000707805,"trial_type":"canvas-sliders-response","trial_index":9,"time_elapsed":17577,"internal_node_id":"0.0-7.0-0.0"},{"choiceTime":0,"choice":1,"totalTime":2001.9999998621643,"image":"http://localhost:8080/ExploringSocialMetacognition/assets/image/advisor2.png","adviceTime":2001.9999998621643,"trial_type":"jspsych-jas-present-advice-choice","trial_index":10,"time_elapsed":19580,"internal_node_id":"0.0-7.0-1.0"},{"startTime":19800.000000279397,"rt":1095.9999999031425,"response":[{"id":0,"name":"Left","answer":50,"prompt":"Left","lastChangedTime":null},{"id":1,"name":"Right","answer":"45","prompt":"Right","lastChangedTime":20447.000000160187}],"trial_type":"canvas-sliders-response","trial_index":11,"time_elapsed":20678,"internal_node_id":"0.0-7.0-2.0"}],"confidenceCategory":0,"advisorAgrees":true,"advice":{"filePath":"assets/audio/voices/1/right_think.wav","string":"It was on the RIGHT, I think","loaded":true,"loading":true,"data":null,"buffer":{},"side":1,"confidence":0}},{"type":1,"typeName":"force","block":1,"advisorId":1,"choice":[],"answer":[1,1],"confidence":[33,53],"whichSide":1,"practice":true,"feedback":true,"warnings":[],"stimulusDrawTime":[21799.000000115484],"stimulusOffTime":[900.9999996051192,null],"fixationDrawTime":[21299.000000115484],"id":5,"dotDifference":24,"grid":{"dotCountL":176,"dotCountR":224,"gridWidth":20,"gridHeight":20,"dotWidth":2,"dotHeight":2,"paddingX":6,"paddingY":6,"gridL":[[0,0,0,1,1,0,0,1,0,1,0,1,0,0,1,0,1,0,1,1],[0,0,0,1,1,1,0,1,0,1,0,1,1,0,0,1,1,1,0,1],[0,1,1,0,0,1,0,1,0,0,0,1,1,1,1,1,0,0,1,0],[1,1,0,0,1,0,0,0,0,0,0,1,0,0,0,0,1,0,0,0],[1,0,0,1,0,0,1,1,1,0,0,0,0,1,0,1,0,0,0,0],[1,0,1,1,0,1,1,0,1,0,0,1,0,0,1,1,1,0,0,1],[1,1,0,0,1,1,0,0,1,0,1,1,0,1,0,0,0,0,0,1],[1,0,0,0,0,0,0,1,1,1,1,0,1,0,0,1,1,1,0,0],[0,0,0,0,0,1,0,0,0,0,0,0,0,0,0,1,1,0,1,0],[1,0,1,0,0,1,1,1,0,1,1,1,0,0,0,0,1,0,1,0],[1,0,1,0,1,1,1,1,0,1,0,0,1,1,0,0,0,0,0,0],[0,1,0,0,1,0,1,1,1,1,0,1,1,0,0,1,1,0,1,1],[1,1,1,0,1,0,0,1,1,1,1,1,0,1,0,1,1,1,0,1],[0,0,0,1,0,1,1,1,0,0,1,0,0,1,1,1,1,1,0,0],[0,0,0,0,0,1,1,1,0,1,0,1,1,1,0,1,0,0,1,0],[1,0,0,0,0,0,0,1,1,0,0,0,0,0,0,0,0,1,0,0],[0,1,0,0,0,1,1,0,0,1,1,0,1,0,0,0,0,0,1,0],[1,0,0,1,1,0,0,0,0,0,0,1,1,1,1,0,1,1,0,1],[0,0,1,1,1,0,0,0,1,1,0,1,0,0,0,1,1,1,0,0],[1,0,0,1,0,0,0,0,0,1,1,1,0,0,0,1,0,0,0,1]],"gridR":[[0,1,0,0,0,1,0,1,0,0,1,1,0,0,0,1,1,0,0,1],[0,0,1,0,0,1,1,0,0,1,1,1,1,1,1,0,1,0,0,0],[0,1,1,1,1,1,1,1,1,1,1,1,0,1,1,1,1,0,1,1],[0,1,1,0,1,1,0,1,0,0,0,0,0,0,1,1,0,0,0,0],[1,0,1,1,0,1,1,0,0,1,1,1,0,0,1,1,1,1,0,1],[1,0,1,1,1,0,0,1,1,1,0,1,1,1,0,1,1,1,1,1],[1,1,1,1,0,1,1,0,1,1,1,0,1,1,1,1,1,1,1,1],[1,1,1,0,1,0,0,0,1,0,0,0,1,0,1,1,1,1,0,0],[1,0,0,1,1,0,1,1,1,1,1,0,1,1,1,0,1,1,0,1],[1,0,0,1,0,1,0,0,0,1,0,1,0,0,1,1,0,1,0,0],[1,1,0,1,0,1,1,0,0,0,1,1,0,0,1,1,0,0,1,1],[1,1,0,0,0,1,1,1,1,0,0,1,1,1,0,0,0,1,1,1],[1,0,0,1,1,0,0,1,1,1,0,1,1,0,1,1,1,0,1,1],[1,0,1,1,1,0,1,1,0,1,0,0,1,1,1,0,0,0,0,0],[0,0,1,0,0,1,1,0,1,1,1,1,1,1,1,0,0,1,0,1],[1,1,0,0,0,0,0,0,1,1,0,1,0,1,1,1,1,0,0,0],[1,0,1,1,0,0,0,1,1,0,1,1,0,0,0,1,1,1,1,0],[1,0,1,1,1,0,1,0,1,0,0,0,0,0,1,0,0,0,0,0],[1,1,0,1,1,0,0,0,1,1,0,1,0,0,1,1,0,1,1,0],[0,0,1,1,0,1,0,1,0,0,0,1,1,0,1,1,0,0,1,0]],"displayWidth":172,"displayHeight":172,"spacing":100,"style":{"gridBorderColor":"#ffffff","gridBorderWidth":"3","dotColor":"#ffffff","dotLineWidth":"1"}},"pluginResponse":[{"startTime":21099.00000039488,"rt":1995.9999998100102,"response":[{"id":0,"name":"Left","answer":50,"prompt":"Left","lastChangedTime":null},{"id":1,"name":"Right","answer":"33","prompt":"Right","lastChangedTime":22716.0000000149}],"stimulusOffTime":900.9999996051192,"trial_type":"canvas-sliders-response","trial_index":12,"time_elapsed":22876,"internal_node_id":"0.0-7.0-0.1"},{"choiceTime":0,"choice":1,"totalTime":2003.000000026077,"image":"http://localhost:8080/ExploringSocialMetacognition/assets/image/advisor2.png","adviceTime":2003.000000026077,"trial_type":"jspsych-jas-present-advice-choice","trial_index":13,"time_elapsed":24879,"internal_node_id":"0.0-7.0-1.1"},{"startTime":25099.00000039488,"rt":1221.999999601394,"response":[{"id":0,"name":"Left","answer":50,"prompt":"Left","lastChangedTime":null},{"id":1,"name":"Right","answer":"53","prompt":"Right","lastChangedTime":25806.00000033155}],"trial_type":"canvas-sliders-response","trial_index":14,"time_elapsed":26103,"internal_node_id":"0.0-7.0-2.1"}],"confidenceCategory":0,"advisorAgrees":true,"advice":{"filePath":"assets/audio/voices/1/right_think.wav","string":"It was on the RIGHT, I think","loaded":true,"loading":true,"data":null,"buffer":{},"side":1,"confidence":0}},{"block":1,"advisorId":1,"choice":[],"answer":[1,1],"confidence":[33,17],"whichSide":1,"practice":true,"feedback":true,"warnings":[],"stimulusDrawTime":[27223.000000230968],"stimulusOffTime":[899.9999999068677,null],"fixationDrawTime":[26724.00000039488],"id":6,"dotDifference":21,"grid":{"dotCountL":179,"dotCountR":221,"gridWidth":20,"gridHeight":20,"dotWidth":2,"dotHeight":2,"paddingX":6,"paddingY":6,"gridL":[[1,0,0,0,0,0,1,0,1,0,0,1,1,1,1,1,0,1,0,0],[0,1,0,0,0,0,1,1,0,0,1,1,1,1,0,0,0,1,1,0],[0,1,1,1,0,0,1,1,1,0,0,1,1,0,1,0,0,1,0,1],[0,1,0,0,1,0,0,0,1,0,0,0,0,1,0,0,1,1,0,0],[1,1,1,0,0,0,0,0,0,1,1,1,0,0,0,0,0,0,0,0],[1,0,1,0,1,1,0,0,1,1,0,1,1,1,0,1,0,0,0,0],[1,1,0,0,0,1,1,0,1,0,0,1,1,1,1,1,1,1,0,0],[0,1,0,0,0,0,0,0,0,0,0,1,1,0,1,1,1,0,0,0],[1,1,0,0,1,1,0,1,0,1,0,1,1,0,0,0,1,1,0,0],[1,1,1,0,1,1,0,1,1,0,0,1,1,1,0,1,1,0,1,0],[1,1,0,0,0,0,1,0,1,1,0,1,1,1,0,0,0,1,1,1],[1,0,0,0,1,0,1,0,0,1,0,1,0,0,0,0,0,0,1,0],[1,0,1,1,1,0,1,1,1,0,0,1,0,0,0,0,0,0,1,1],[1,0,0,0,1,0,1,0,0,1,1,0,0,1,1,1,0,1,1,0],[0,0,0,0,1,1,1,0,1,1,1,1,0,0,0,0,1,0,0,0],[0,0,1,0,1,1,1,0,1,0,1,0,0,0,1,0,1,0,1,0],[0,0,1,0,0,1,0,0,0,1,0,1,1,1,0,1,0,0,0,1],[0,1,0,1,1,1,0,1,1,0,0,0,1,0,0,0,0,0,1,1],[1,0,0,1,0,1,1,1,0,0,0,1,0,0,1,0,0,0,0,0],[0,0,0,0,1,0,1,1,0,1,0,0,0,0,1,1,0,1,1,1]],"gridR":[[0,1,0,1,1,1,0,0,1,1,0,1,0,1,0,0,1,0,0,1],[1,1,0,1,1,1,1,1,0,1,1,0,0,1,1,1,1,0,0,1],[1,0,1,0,1,1,1,0,0,1,0,0,1,1,1,0,0,0,0,1],[1,0,1,0,1,1,1,0,0,1,1,1,1,1,1,0,1,0,0,0],[0,0,0,1,1,0,0,1,1,1,0,1,1,1,1,0,1,1,1,0],[1,1,1,0,0,1,1,1,1,1,0,0,0,1,0,0,0,1,0,1],[1,0,0,1,0,0,1,1,1,1,1,0,0,1,1,0,1,0,1,1],[0,0,1,0,1,0,0,1,1,0,1,1,1,1,0,1,0,1,0,0],[1,1,0,1,0,1,1,1,0,0,0,1,1,1,0,0,1,0,0,0],[1,1,0,1,1,0,1,1,1,0,1,0,1,1,0,1,1,0,0,1],[0,0,1,1,1,1,1,1,1,1,0,0,1,1,1,1,1,1,0,1],[0,0,1,0,0,0,1,0,1,1,1,1,1,1,1,1,0,0,1,0],[1,0,0,0,0,0,0,1,0,0,0,0,0,1,0,1,0,1,1,1],[0,0,0,1,1,1,1,0,1,1,0,0,0,0,0,0,0,1,1,0],[1,1,1,1,0,1,0,1,1,0,1,1,0,1,0,0,0,1,0,1],[0,0,0,1,0,1,0,0,1,1,1,0,1,1,1,1,0,1,1,0],[0,0,0,1,0,1,1,0,0,1,1,1,0,1,1,1,1,1,1,0],[1,0,1,0,1,0,1,1,0,1,1,1,0,1,0,1,1,0,0,1],[0,1,1,1,0,1,0,1,0,1,0,0,0,1,0,1,0,0,0,0],[0,0,0,0,0,1,0,1,1,1,0,1,1,1,1,1,0,0,1,1]],"displayWidth":172,"displayHeight":172,"spacing":100,"style":{"gridBorderColor":"#ffffff","gridBorderWidth":"3","dotColor":"#ffffff","dotLineWidth":"1"}},"pluginResponse":[{"startTime":26523.000000044703,"rt":1979.9999999813735,"response":[{"id":0,"name":"Left","answer":50,"prompt":"Left","lastChangedTime":null},{"id":1,"name":"Right","answer":"33","prompt":"Right","lastChangedTime":28094.00000004098}],"stimulusOffTime":899.9999999068677,"trial_type":"canvas-sliders-response","trial_index":15,"time_elapsed":28285,"internal_node_id":"0.0-7.0-0.2"},{"choiceTime":0,"choice":1,"totalTime":2003.000000026077,"image":"http://localhost:8080/ExploringSocialMetacognition/assets/image/advisor2.png","adviceTime":2003.000000026077,"trial_type":"jspsych-jas-present-advice-choice","trial_index":16,"time_elapsed":30289,"internal_node_id":"0.0-7.0-1.2"},{"startTime":30508.00000037998,"rt":1029.999999795109,"response":[{"id":0,"name":"Left","answer":50,"prompt":"Left","lastChangedTime":null},{"id":1,"name":"Right","answer":"17","prompt":"Right","lastChangedTime":31110.000000335276}],"trial_type":"canvas-sliders-response","trial_index":17,"time_elapsed":31319,"internal_node_id":"0.0-7.0-2.2"}],"confidenceCategory":0,"advisorAgrees":false,"advice":{"filePath":"assets/audio/voices/1/think_left.wav","string":"I think it was on the LEFT","loaded":true,"loading":true,"data":null,"buffer":{},"side":0,"confidence":0}},{"block":1,"advisorId":1,"choice":[],"answer":[1,1],"confidence":[8,0],"whichSide":1,"practice":true,"feedback":true,"warnings":[],"stimulusDrawTime":[32440.000000409782],"stimulusOffTime":[902.0000002346933,null],"fixationDrawTime":[31940.000000409782],"id":7,"dotDifference":18,"grid":{"dotCountL":182,"dotCountR":218,"gridWidth":20,"gridHeight":20,"dotWidth":2,"dotHeight":2,"paddingX":6,"paddingY":6,"gridL":[[0,0,1,1,0,1,1,0,0,0,0,0,0,0,0,1,0,1,0,1],[1,0,0,0,0,0,1,1,1,0,1,0,1,0,0,0,1,0,1,1],[0,0,0,0,1,1,0,0,0,1,0,0,0,0,1,0,1,0,1,0],[0,0,1,0,0,0,0,1,1,1,0,0,1,0,1,0,1,1,1,0],[1,0,1,1,0,0,0,0,1,0,1,1,0,1,1,0,0,1,0,0],[0,0,1,0,0,0,0,0,1,1,0,1,0,0,0,0,0,1,0,0],[0,0,1,1,1,0,0,0,1,1,0,0,0,1,1,0,0,0,1,0],[0,0,0,1,1,0,1,1,0,0,1,0,0,0,0,0,0,1,0,0],[1,0,0,0,1,1,1,0,0,1,1,1,1,1,0,1,0,1,0,0],[0,0,1,0,1,1,0,1,1,1,1,0,1,1,0,1,1,0,0,1],[0,0,0,0,1,0,0,1,1,1,1,1,1,1,0,0,1,1,1,0],[1,1,1,0,1,1,1,0,0,0,0,1,1,0,1,0,1,1,1,1],[0,0,0,1,0,0,0,1,0,0,0,1,1,0,1,1,1,1,0,0],[1,0,0,0,1,0,0,0,1,1,1,1,0,0,0,0,1,1,0,1],[1,1,1,0,1,1,0,0,0,1,1,0,1,1,1,1,1,0,1,1],[1,0,0,0,1,0,0,0,0,1,1,0,0,1,1,1,0,0,1,0],[1,1,0,0,1,0,1,0,0,1,0,0,0,1,0,0,1,0,1,1],[0,0,0,0,1,1,0,1,0,0,0,1,0,1,1,1,0,1,1,1],[1,0,0,1,0,1,1,1,1,0,0,1,1,1,0,0,1,0,1,0],[1,0,1,0,0,0,1,0,0,1,1,0,0,0,0,1,1,0,0,0]],"gridR":[[1,0,0,1,1,0,0,0,1,0,1,1,0,1,0,0,0,0,0,0],[1,1,1,1,0,0,0,0,0,1,1,1,1,1,1,1,0,0,1,1],[1,0,0,0,1,0,0,1,1,1,1,1,1,0,1,1,1,0,0,1],[1,1,0,0,0,0,0,0,1,0,1,1,0,0,1,0,1,1,1,1],[0,1,0,1,0,1,1,1,1,0,1,1,0,0,1,1,0,1,1,1],[1,0,0,0,1,1,0,0,1,1,0,1,0,1,1,0,1,1,1,1],[1,0,0,0,0,1,0,1,1,1,1,1,1,0,0,0,1,1,0,1],[1,0,1,0,1,1,1,0,0,1,0,0,0,1,1,1,0,0,0,0],[0,1,1,0,1,1,1,1,0,0,0,1,1,1,0,1,1,1,1,0],[0,1,1,1,0,1,1,1,1,0,0,1,0,1,1,0,1,1,0,0],[0,1,1,0,0,0,1,1,0,0,0,0,1,1,0,0,1,1,0,1],[0,1,1,0,0,0,1,1,0,0,0,1,0,1,1,1,0,0,0,1],[1,0,0,0,1,1,0,0,1,1,1,1,1,1,1,1,1,0,0,1],[1,0,1,1,1,0,1,0,0,0,0,0,0,1,0,1,1,0,0,1],[0,1,0,0,1,1,0,0,0,0,0,0,0,1,1,0,1,0,0,1],[0,1,1,0,1,0,0,1,1,0,1,1,0,1,1,1,0,1,1,0],[1,1,1,0,0,1,1,1,1,0,1,0,0,1,1,1,0,0,0,0],[1,1,1,0,1,1,1,1,1,1,1,1,1,1,0,1,0,0,0,1],[0,1,0,1,0,0,1,0,1,0,1,1,0,0,1,0,1,1,1,0],[1,0,0,1,1,1,1,0,0,0,1,1,0,1,0,0,1,1,0,1]],"displayWidth":172,"displayHeight":172,"spacing":100,"style":{"gridBorderColor":"#ffffff","gridBorderWidth":"3","dotColor":"#ffffff","dotLineWidth":"1"}},"pluginResponse":[{"startTime":31739.000000059605,"rt":2024.9999999068677,"response":[{"id":0,"name":"Left","answer":50,"prompt":"Left","lastChangedTime":null},{"id":1,"name":"Right","answer":"8","prompt":"Right","lastChangedTime":33417.00000036508}],"stimulusOffTime":902.0000002346933,"trial_type":"canvas-sliders-response","trial_index":18,"time_elapsed":33545,"internal_node_id":"0.0-7.0-0.3"},{"choiceTime":0,"choice":1,"totalTime":2001.9999998621643,"image":"http://localhost:8080/ExploringSocialMetacognition/assets/image/advisor2.png","adviceTime":2001.9999998621643,"trial_type":"jspsych-jas-present-advice-choice","trial_index":19,"time_elapsed":35548,"internal_node_id":"0.0-7.0-1.3"},{"startTime":35768.00000015646,"rt":1430.000000167638,"response":[{"id":0,"name":"Left","answer":50,"prompt":"Left","lastChangedTime":null},{"id":1,"name":"Right","answer":"0","prompt":"Right","lastChangedTime":36655.00000026077}],"trial_type":"canvas-sliders-response","trial_index":20,"time_elapsed":36980,"internal_node_id":"0.0-7.0-2.3"}],"confidenceCategory":0,"advisorAgrees":false,"advice":{"filePath":"assets/audio/voices/1/think_left.wav","string":"I think it was on the LEFT","loaded":true,"loading":true,"data":null,"buffer":{},"side":0,"confidence":0}},{"type":1,"typeName":"force","block":2,"advisorId":2,"choice":[],"answer":[0,0],"confidence":[10,29],"whichSide":0,"practice":false,"feedback":false,"warnings":[],"stimulusDrawTime":[102496.99999997392],"stimulusOffTime":[899.9999999068677,null],"fixationDrawTime":[101996.99999997392],"id":8,"dotDifference":15,"grid":{"dotCountL":215,"dotCountR":185,"gridWidth":20,"gridHeight":20,"dotWidth":2,"dotHeight":2,"paddingX":6,"paddingY":6,"gridL":[[0,0,0,1,0,1,1,0,1,0,1,0,1,1,0,0,0,1,0,1],[1,0,0,0,0,1,1,0,0,1,0,0,1,0,1,0,1,1,0,1],[1,0,0,1,1,1,0,1,1,1,1,1,1,1,0,0,1,1,0,1],[1,1,0,0,1,1,1,1,0,1,1,1,0,1,0,0,1,1,0,1],[0,1,1,1,1,1,1,1,1,0,0,1,1,1,1,1,0,1,0,1],[1,0,0,1,1,0,0,1,0,0,1,0,1,1,0,1,0,1,1,0],[1,1,1,1,1,1,1,1,0,0,1,0,1,1,1,0,0,1,0,0],[1,1,0,0,1,0,1,1,0,0,0,1,0,0,1,1,0,0,1,0],[1,1,1,0,0,1,1,0,0,0,1,1,1,0,0,0,1,0,1,1],[0,1,0,1,0,0,0,1,0,1,1,0,0,1,0,1,0,0,1,0],[1,1,0,0,1,0,0,0,0,1,0,1,1,0,1,0,1,1,0,1],[0,1,0,0,0,0,0,0,1,0,1,0,0,1,0,1,0,0,0,1],[0,0,0,0,0,0,1,1,1,1,1,0,0,0,1,1,1,0,1,1],[1,0,1,1,0,0,0,1,1,1,0,1,1,1,1,1,1,1,1,0],[1,0,1,1,1,1,0,1,1,1,1,0,1,1,1,0,1,1,0,0],[1,1,1,1,0,0,1,0,1,1,0,0,0,0,0,0,1,1,1,1],[1,1,0,0,1,0,0,0,0,1,1,1,1,1,1,0,0,1,0,1],[0,1,1,1,0,0,0,1,1,1,0,0,0,0,1,0,1,1,0,1],[0,0,1,0,1,1,0,1,0,0,0,1,1,0,0,0,0,0,1,1],[1,1,0,1,1,1,1,0,1,0,0,0,0,1,0,0,0,1,0,1]],"gridR":[[0,1,1,0,1,0,0,1,1,1,0,0,1,1,0,1,0,1,1,1],[1,0,1,1,1,0,1,1,1,0,0,0,0,0,1,1,0,0,1,0],[1,1,0,1,1,1,0,1,0,1,1,1,0,0,0,0,1,0,1,0],[0,0,1,0,0,1,1,0,1,1,1,0,1,0,0,0,1,1,0,0],[0,1,0,1,0,0,0,1,0,0,1,1,0,0,0,0,1,1,1,1],[1,1,1,1,0,0,1,1,0,0,1,1,1,0,0,0,0,0,1,1],[0,0,1,1,1,0,1,0,1,0,1,1,1,0,0,0,0,0,0,0],[0,0,1,1,0,1,0,1,1,0,0,0,0,0,0,1,0,0,1,1],[0,1,1,0,1,0,0,1,1,0,0,0,0,0,0,0,0,0,0,0],[0,0,0,0,1,1,0,0,0,0,1,0,1,0,1,1,1,1,1,1],[1,1,0,1,1,0,0,1,1,1,0,1,1,1,1,0,1,1,0,1],[1,1,1,1,1,0,0,0,0,1,0,0,1,1,0,0,1,1,1,0],[1,0,0,1,1,0,1,1,1,1,1,1,0,1,0,0,0,0,0,0],[1,1,1,0,0,1,1,0,0,0,1,0,0,0,0,1,0,0,1,0],[1,1,0,1,0,0,1,0,0,0,0,1,1,0,1,1,0,1,0,0],[0,1,0,0,0,0,1,0,0,0,1,0,0,1,0,1,0,0,1,0],[1,0,0,0,1,0,0,1,1,0,1,1,0,1,1,1,0,0,1,1],[0,0,1,1,0,0,1,1,0,1,0,0,0,0,0,0,0,0,0,1],[0,0,1,1,0,0,0,1,0,1,0,0,0,0,0,0,0,1,1,1],[0,1,0,1,1,0,1,1,0,1,1,0,0,1,0,0,0,1,0,1]],"displayWidth":172,"displayHeight":172,"spacing":100,"style":{"gridBorderColor":"#ffffff","gridBorderWidth":"3","dotColor":"#ffffff","dotLineWidth":"1"}},"pluginResponse":[{"startTime":101797.00000025332,"rt":2242.999999783933,"response":[{"id":0,"name":"Left","answer":10,"prompt":"Left","lastChangedTime":103516.99999999255},{"id":1,"name":"Right","answer":"50","prompt":"Right","lastChangedTime":null}],"stimulusOffTime":899.9999999068677,"trial_type":"canvas-sliders-response","trial_index":26,"time_elapsed":103822,"internal_node_id":"0.0-13.0-0.0"},{"choiceTime":0,"choice":2,"totalTime":2003.000000026077,"image":"http://localhost:8080/ExploringSocialMetacognition/assets/image/advisor3.png","adviceTime":2003.000000026077,"trial_type":"jspsych-jas-present-advice-choice","trial_index":27,"time_elapsed":105825,"internal_node_id":"0.0-13.0-1.0"},{"startTime":106045.00000039116,"rt":1179.0000000037253,"response":[{"id":0,"name":"Left","answer":29,"prompt":"Left","lastChangedTime":106774.00000020862},{"id":1,"name":"Right","answer":"50","prompt":"Right","lastChangedTime":null}],"trial_type":"canvas-sliders-response","trial_index":28,"time_elapsed":107006,"internal_node_id":"0.0-13.0-2.0"}],"confidenceCategory":0,"advisorAgrees":true,"advice":{"filePath":"assets/audio/voices/3/think_left.wav","string":"I think it was on the LEFT","loaded":true,"loading":true,"data":null,"buffer":{},"side":0,"confidence":0}},{"type":2,"typeName":"choice","block":2,"advisorId":2,"choice":[3,2],"answer":[0,0],"confidence":[68,84],"whichSide":0,"practice":false,"feedback":false,"warnings":[],"stimulusDrawTime":[108128.00000002608],"stimulusOffTime":[899.9999999068677,null],"fixationDrawTime":[107627.00000032783],"id":9,"dotDifference":12,"grid":{"dotCountL":212,"dotCountR":188,"gridWidth":20,"gridHeight":20,"dotWidth":2,"dotHeight":2,"paddingX":6,"paddingY":6,"gridL":[[1,0,1,0,0,0,1,0,0,0,1,0,0,0,1,0,1,0,0,1],[0,1,0,1,0,1,1,1,1,1,0,0,0,0,0,1,1,1,0,0],[0,0,0,1,0,1,1,1,0,0,1,1,0,1,1,0,0,1,1,1],[1,0,0,1,1,1,1,0,0,1,1,0,0,0,0,1,0,0,0,1],[0,1,1,1,1,1,1,0,1,1,1,1,1,1,0,1,0,0,1,1],[1,0,1,1,0,0,1,1,0,1,1,1,0,0,0,0,1,1,1,1],[1,1,1,1,1,1,1,1,1,0,1,1,1,1,1,1,0,1,0,0],[0,0,0,0,0,1,0,0,0,1,1,1,1,0,1,0,0,1,0,1],[0,1,0,1,0,1,0,1,1,1,1,1,1,0,1,1,1,1,0,1],[0,0,1,0,1,1,1,0,1,0,0,1,1,0,1,0,0,0,1,1],[0,0,1,1,0,1,1,1,1,0,0,0,1,0,0,0,0,0,1,0],[0,0,1,0,1,0,1,1,1,0,1,0,1,0,1,1,0,1,0,0],[1,1,0,0,0,1,0,0,0,0,1,1,0,1,1,0,0,1,0,1],[1,0,1,1,1,1,0,0,0,0,0,1,1,1,1,1,0,0,1,1],[0,0,0,0,1,0,0,0,0,0,1,1,0,1,1,1,1,0,1,1],[1,1,0,1,1,0,1,0,0,0,1,1,1,0,1,0,0,1,1,0],[0,1,1,1,1,0,1,0,1,0,0,1,0,1,1,1,1,1,0,1],[1,0,0,0,1,0,0,0,0,0,1,1,0,0,0,1,1,0,1,0],[1,1,0,1,0,1,1,1,1,1,0,0,1,1,0,0,1,0,0,1],[1,1,0,1,1,0,1,0,1,0,0,0,0,1,0,1,0,0,1,0]],"gridR":[[0,1,0,1,1,0,0,0,1,0,1,0,1,1,1,1,0,1,1,0],[1,0,0,0,0,0,1,1,0,1,1,0,1,0,1,0,1,1,0,1],[1,1,1,1,0,1,0,1,0,0,1,1,0,1,0,1,0,1,1,0],[1,1,0,0,1,0,1,1,0,0,1,1,0,0,1,0,0,1,1,1],[1,1,0,0,0,1,0,0,0,1,0,0,0,1,0,0,1,0,1,1],[0,1,1,1,1,0,0,1,1,0,0,0,0,0,0,1,1,1,1,1],[0,0,1,0,0,1,0,0,1,0,0,1,0,0,1,0,0,0,0,0],[0,0,1,0,1,0,1,0,0,0,0,1,1,0,1,0,0,0,0,1],[1,1,1,0,0,1,0,0,0,0,0,0,0,1,1,1,0,0,1,1],[0,1,0,1,0,0,0,1,1,0,0,0,0,1,1,0,1,1,0,1],[0,0,0,0,1,0,1,0,0,0,1,1,1,0,0,1,0,1,0,0],[1,1,0,0,1,0,0,0,0,0,1,1,0,1,1,1,0,0,1,1],[1,0,0,0,1,1,1,1,0,0,0,0,1,1,1,1,0,0,1,1],[1,0,1,0,0,0,1,0,0,0,0,0,0,0,0,1,1,0,0,0],[1,0,1,1,1,0,1,1,0,0,0,1,0,0,0,1,0,0,0,0],[1,0,1,1,0,0,0,1,1,0,0,1,0,1,0,0,1,1,0,1],[1,1,1,1,1,1,1,0,0,1,0,1,0,0,1,0,1,0,1,0],[0,1,1,0,0,1,0,0,0,1,1,1,0,1,1,0,0,0,0,0],[0,1,0,1,0,0,1,1,1,1,0,1,1,1,1,0,0,1,1,1],[0,0,1,1,1,0,1,1,1,0,1,1,0,0,0,0,0,1,1,1]],"displayWidth":172,"displayHeight":172,"spacing":100,"style":{"gridBorderColor":"#ffffff","gridBorderWidth":"3","dotColor":"#ffffff","dotLineWidth":"1"}},"pluginResponse":[{"startTime":107427.00000014156,"rt":2035.999999847263,"response":[{"id":0,"name":"Left","answer":68,"prompt":"Left","lastChangedTime":109041.00000020117},{"id":1,"name":"Right","answer":"50","prompt":"Right","lastChangedTime":null}],"stimulusOffTime":899.9999999068677,"trial_type":"canvas-sliders-response","trial_index":29,"time_elapsed":109244,"internal_node_id":"0.0-13.0-0.1"},{"choiceTime":1257.0000002160668,"choice":2,"totalTime":3259.000000078231,"image":"http://localhost:8080/ExploringSocialMetacognition/assets/image/advisor3.png","adviceTime":2001.9999998621643,"trial_type":"jspsych-jas-present-advice-choice","trial_index":30,"time_elapsed":112503,"internal_node_id":"0.0-13.0-1.1"},{"startTime":112724.00000039488,"rt":1440.9999996423721,"response":[{"id":0,"name":"Left","answer":84,"prompt":"Left","lastChangedTime":113576.00000035018},{"id":1,"name":"Right","answer":"50","prompt":"Right","lastChangedTime":null}],"trial_type":"canvas-sliders-response","trial_index":31,"time_elapsed":113947,"internal_node_id":"0.0-13.0-2.1"}],"confidenceCategory":2,"advisorAgrees":true,"advice":{"filePath":"assets/audio/voices/3/think_left.wav","string":"I think it was on the LEFT","loaded":true,"loading":true,"data":null,"buffer":{},"side":0,"confidence":0}},{"type":1,"typeName":"force","block":2,"advisorId":3,"choice":[],"answer":[0,0],"confidence":[62,81],"whichSide":1,"practice":false,"feedback":false,"warnings":[],"stimulusDrawTime":[115067.9999999702],"stimulusOffTime":[902.0000002346933,null],"fixationDrawTime":[114567.00000027195],"id":10,"dotDifference":9,"grid":{"dotCountL":191,"dotCountR":209,"gridWidth":20,"gridHeight":20,"dotWidth":2,"dotHeight":2,"paddingX":6,"paddingY":6,"gridL":[[1,0,0,1,1,0,0,1,0,0,1,1,1,1,1,1,1,1,0,1],[0,0,0,1,0,1,1,0,0,1,0,1,0,1,1,1,1,0,0,0],[0,0,0,0,0,0,0,1,0,0,0,1,0,0,1,0,1,1,1,0],[1,1,1,1,0,0,0,0,0,0,1,0,0,0,0,0,1,1,0,0],[1,0,0,1,0,0,1,1,1,0,0,0,0,1,0,0,1,0,1,1],[1,1,0,0,1,0,1,0,1,0,1,1,0,0,0,1,0,0,0,1],[0,1,1,1,1,1,1,0,0,0,0,1,0,0,0,0,0,1,0,0],[1,1,0,1,1,1,0,0,1,1,1,0,0,1,1,0,0,0,1,1],[0,0,0,1,1,1,0,0,1,1,1,1,0,0,0,0,1,0,1,1],[0,0,0,1,0,0,1,1,0,1,1,1,0,0,0,0,0,1,0,0],[0,0,0,0,1,1,0,1,1,1,0,1,1,1,1,0,0,1,0,0],[1,1,0,1,0,1,1,1,1,1,1,1,0,0,0,0,1,1,0,1],[1,0,1,1,1,1,1,0,1,0,0,0,0,1,1,1,1,1,0,1],[0,1,0,0,1,0,0,1,0,0,1,0,1,1,0,1,1,1,0,0],[0,0,1,1,1,1,1,0,0,0,1,1,1,1,0,0,0,0,1,0],[0,0,0,1,1,0,0,0,1,1,0,0,0,1,0,0,1,0,0,1],[0,1,0,1,0,1,1,1,0,0,1,0,0,1,1,0,0,1,1,0],[0,1,1,1,1,0,0,0,0,0,0,0,1,1,1,1,1,0,0,0],[0,1,1,0,0,1,1,1,0,1,1,1,1,1,0,0,1,0,0,1],[1,0,0,0,1,0,0,1,1,1,0,0,0,0,0,0,0,1,1,1]],"gridR":[[1,0,1,1,0,0,1,0,0,0,0,0,1,0,0,1,1,0,1,1],[0,0,0,1,0,1,1,1,0,1,1,1,0,1,1,0,1,0,0,1],[1,0,0,1,1,0,1,1,0,0,1,0,1,0,1,0,0,1,1,0],[0,0,0,1,0,0,1,1,1,0,1,1,1,1,0,0,1,1,1,1],[1,1,1,0,0,0,1,1,1,0,0,1,0,1,1,1,1,1,1,1],[1,1,0,0,1,1,1,1,0,1,0,0,0,1,0,0,0,0,1,1],[1,1,1,1,1,0,0,1,0,1,1,1,0,1,0,0,0,0,1,0],[0,1,0,0,1,0,0,0,1,0,0,1,0,1,0,1,1,1,0,0],[0,1,1,0,1,0,1,0,1,0,0,1,1,0,0,1,0,1,0,1],[1,0,0,0,1,0,0,1,1,0,1,1,1,1,1,1,0,1,0,1],[0,0,0,0,1,0,0,0,1,1,1,0,1,1,1,0,1,1,0,1],[0,1,1,0,1,1,0,1,1,1,0,0,1,0,1,1,0,1,1,0],[1,1,0,1,1,1,1,1,0,0,0,1,1,1,1,0,0,0,1,1],[1,0,0,0,0,0,0,1,1,0,1,1,0,1,1,1,0,1,1,1],[1,0,0,1,0,0,1,1,1,0,0,1,1,0,0,0,0,1,1,1],[0,0,0,1,1,0,1,1,0,0,0,0,0,1,1,0,0,0,1,0],[0,1,1,1,0,1,0,0,1,1,1,1,0,1,1,0,1,0,0,1],[1,1,1,0,0,0,1,1,1,0,1,1,1,1,0,1,1,1,1,0],[1,1,1,0,0,0,1,0,0,0,0,0,0,0,0,0,0,0,1,0],[0,0,0,0,1,1,0,0,0,1,1,1,0,1,0,1,0,0,0,1]],"displayWidth":172,"displayHeight":172,"spacing":100,"style":{"gridBorderColor":"#ffffff","gridBorderWidth":"3","dotColor":"#ffffff","dotLineWidth":"1"}},"pluginResponse":[{"startTime":114367.00000008568,"rt":2223.000000230968,"response":[{"id":0,"name":"Left","answer":62,"prompt":"Left","lastChangedTime":115989.0000000596},{"id":1,"name":"Right","answer":"50","prompt":"Right","lastChangedTime":null}],"stimulusOffTime":902.0000002346933,"trial_type":"canvas-sliders-response","trial_index":32,"time_elapsed":116372,"internal_node_id":"0.0-13.0-0.2"},{"choiceTime":0,"choice":3,"totalTime":2002.0000003278255,"image":"http://localhost:8080/ExploringSocialMetacognition/assets/image/advisor1.png","adviceTime":2002.0000003278255,"trial_type":"jspsych-jas-present-advice-choice","trial_index":33,"time_elapsed":118374,"internal_node_id":"0.0-13.0-1.2"},{"startTime":118594.00000004098,"rt":1239.0000000596046,"response":[{"id":0,"name":"Left","answer":81,"prompt":"Left","lastChangedTime":119289.000000339},{"id":1,"name":"Right","answer":"50","prompt":"Right","lastChangedTime":null}],"trial_type":"canvas-sliders-response","trial_index":34,"time_elapsed":119614,"internal_node_id":"0.0-13.0-2.2"}],"confidenceCategory":1,"advisorAgrees":false,"advice":{"filePath":"assets/audio/voices/2/left_think.wav","string":"It was on the LEFT, I think","loaded":true,"loading":true,"data":null,"buffer":{},"side":0,"confidence":0}},{"type":2,"typeName":"choice","block":2,"advisorId":2,"choice":[2,3],"answer":[0,0],"confidence":[59,78],"whichSide":0,"practice":false,"feedback":false,"warnings":[],"stimulusDrawTime":[120735.00000033528],"stimulusOffTime":[900.000000372529,null],"fixationDrawTime":[120234.00000017136],"id":11,"dotDifference":12,"grid":{"dotCountL":212,"dotCountR":188,"gridWidth":20,"gridHeight":20,"dotWidth":2,"dotHeight":2,"paddingX":6,"paddingY":6,"gridL":[[0,0,1,1,0,0,0,0,0,0,1,0,1,1,1,1,0,1,0,0],[0,1,1,0,1,1,1,1,0,0,1,1,0,1,0,0,1,0,1,0],[0,0,0,1,1,0,0,0,1,1,0,1,0,0,0,1,1,0,1,1],[0,1,0,1,0,1,1,0,1,1,1,1,1,0,0,1,0,1,1,1],[1,0,1,1,1,0,1,0,0,0,1,0,1,0,0,0,1,0,1,1],[1,0,1,1,0,0,1,1,0,1,1,1,1,1,1,0,1,0,1,1],[1,0,1,1,0,1,0,1,1,0,0,1,0,0,0,1,0,1,0,1],[1,1,0,1,1,0,1,1,1,0,1,1,0,0,0,0,1,0,0,1],[0,1,1,0,0,0,0,0,0,0,1,0,0,0,1,0,1,1,0,1],[1,0,0,0,1,0,0,0,0,1,1,0,1,0,1,1,0,1,1,0],[1,0,1,0,0,0,1,0,0,1,0,0,0,1,0,0,1,1,0,0],[1,1,0,1,1,1,0,1,1,1,0,1,1,1,0,1,0,1,1,1],[0,1,0,0,1,0,1,1,0,1,1,0,0,0,1,0,0,0,0,1],[1,1,1,0,1,1,1,1,0,1,0,0,1,0,1,1,0,1,1,1],[1,1,0,1,0,0,1,0,1,1,0,1,1,0,1,0,1,1,1,1],[1,1,0,0,0,1,1,0,0,1,1,1,1,0,1,0,1,0,0,0],[1,1,0,1,1,0,0,0,0,0,0,1,0,1,1,1,0,1,0,1],[0,0,0,0,0,1,1,0,1,1,1,1,1,1,0,1,0,0,0,0],[0,1,1,0,1,1,1,1,1,0,0,0,1,0,1,1,0,1,1,0],[0,1,1,1,0,1,1,1,1,1,0,1,0,0,1,0,1,0,0,1]],"gridR":[[1,0,0,1,0,1,1,0,1,0,1,0,0,1,0,0,1,1,0,1],[1,1,1,1,0,1,0,0,1,0,1,0,1,0,0,1,0,0,1,1],[0,1,0,1,0,1,1,1,0,1,0,0,0,1,0,1,1,0,0,0],[1,0,1,0,1,1,0,0,1,1,0,1,0,1,0,0,1,1,1,0],[1,0,0,0,1,0,0,1,0,0,1,0,1,1,0,0,1,0,1,1],[1,0,0,1,0,1,0,1,0,1,0,1,0,0,1,1,1,0,0,0],[0,0,1,1,0,0,1,0,0,1,0,1,1,1,1,0,1,0,0,0],[1,0,1,1,1,1,1,0,1,1,0,0,1,1,0,0,0,1,1,1],[1,1,0,0,0,0,0,1,1,0,1,1,0,0,0,1,0,1,0,0],[1,1,0,1,1,0,0,0,1,0,1,0,1,0,1,0,0,0,0,0],[1,1,0,0,0,1,1,1,0,0,1,0,0,1,0,0,1,0,1,1],[0,1,1,1,1,1,0,1,0,1,1,0,0,1,0,1,1,0,0,0],[0,0,1,0,0,0,0,0,1,0,1,0,0,0,0,0,1,0,1,0],[1,0,1,1,1,0,0,0,0,0,0,0,1,0,1,0,1,1,0,1],[1,1,0,1,1,0,1,1,1,1,0,0,1,1,1,1,0,0,0,0],[0,1,1,1,1,0,1,1,0,0,0,0,0,0,0,0,1,0,0,0],[1,0,1,0,0,0,0,0,0,0,1,1,1,1,0,1,1,0,0,0],[1,0,1,1,0,1,0,0,1,0,0,0,0,0,0,0,0,0,1,1],[1,0,1,1,1,1,0,1,0,0,0,1,1,1,1,1,1,0,1,0],[1,0,1,0,0,1,0,1,0,0,1,0,0,0,1,0,1,1,0,1]],"displayWidth":172,"displayHeight":172,"spacing":100,"style":{"gridBorderColor":"#ffffff","gridBorderWidth":"3","dotColor":"#ffffff","dotLineWidth":"1"}},"pluginResponse":[{"startTime":120033.9999999851,"rt":2398.0000000447035,"response":[{"id":0,"name":"Left","answer":59,"prompt":"Left","lastChangedTime":121779.00000009686},{"id":1,"name":"Right","answer":"50","prompt":"Right","lastChangedTime":null}],"stimulusOffTime":900.000000372529,"trial_type":"canvas-sliders-response","trial_index":35,"time_elapsed":122214,"internal_node_id":"0.0-13.0-0.3"},{"choiceTime":1209.999999962747,"choice":2,"totalTime":3211.9999998249114,"image":"http://localhost:8080/ExploringSocialMetacognition/assets/image/advisor3.png","adviceTime":2001.9999998621643,"trial_type":"jspsych-jas-present-advice-choice","trial_index":36,"time_elapsed":125426,"internal_node_id":"0.0-13.0-1.3"},{"startTime":125646.00000018254,"rt":1276.999999769032,"response":[{"id":0,"name":"Left","answer":78,"prompt":"Left","lastChangedTime":126275.00000037253},{"id":1,"name":"Right","answer":"50","prompt":"Right","lastChangedTime":null}],"trial_type":"canvas-sliders-response","trial_index":37,"time_elapsed":126704,"internal_node_id":"0.0-13.0-2.3"}],"confidenceCategory":1,"advisorAgrees":true,"advice":{"filePath":"assets/audio/voices/3/left_think.wav","string":"It was on the LEFT, I think","loaded":true,"loading":true,"data":null,"buffer":{},"side":0,"confidence":0}},{"type":1,"typeName":"force","block":2,"advisorId":3,"choice":[],"answer":[1,1],"confidence":[11,29],"whichSide":1,"practice":false,"feedback":false,"warnings":[],"stimulusDrawTime":[127824.00000002235],"stimulusOffTime":[899.9999999068677,null],"fixationDrawTime":[127324.00000002235],"id":12,"dotDifference":12,"grid":{"dotCountL":188,"dotCountR":212,"gridWidth":20,"gridHeight":20,"dotWidth":2,"dotHeight":2,"paddingX":6,"paddingY":6,"gridL":[[0,0,0,1,0,1,1,0,1,1,0,0,1,0,0,1,0,1,0,1],[1,0,1,0,1,1,0,1,1,1,1,0,1,0,0,1,1,1,0,1],[0,1,1,0,1,0,0,0,1,0,0,1,1,1,1,1,0,0,0,1],[0,0,0,0,1,0,0,0,1,0,0,0,1,0,1,0,1,0,0,1],[0,1,1,1,0,1,0,0,0,1,0,0,0,0,0,1,0,1,1,0],[0,1,0,1,0,0,0,0,0,0,1,0,1,1,1,1,1,1,1,0],[0,1,0,0,0,1,0,1,1,1,1,1,0,1,1,0,1,1,0,0],[1,1,0,1,0,0,0,1,1,1,1,0,0,0,1,0,0,0,1,0],[1,1,0,0,1,0,1,1,1,0,0,0,1,1,0,1,0,0,1,0],[1,1,1,0,1,1,0,0,0,1,0,0,0,1,0,0,0,0,0,1],[1,0,0,1,0,0,1,1,1,1,0,0,0,0,1,0,1,1,0,1],[0,0,1,1,0,1,0,0,0,0,1,0,1,0,0,0,0,0,1,1],[0,0,0,0,0,1,1,1,0,1,0,0,1,1,1,0,0,0,1,1],[0,1,0,0,1,0,1,0,0,0,1,1,0,0,1,0,1,1,1,1],[1,1,1,1,0,0,1,0,1,0,0,0,1,0,0,1,1,0,1,0],[0,1,0,1,1,0,0,1,1,0,0,0,1,0,0,0,1,1,1,0],[1,1,1,0,0,0,0,0,0,0,0,0,0,1,1,1,1,0,0,0],[0,1,1,1,1,1,1,1,0,1,0,0,0,1,1,0,1,1,0,1],[1,0,0,1,0,1,1,1,0,0,0,0,0,1,1,0,1,0,1,1],[1,0,1,1,0,0,1,0,0,0,1,0,1,0,0,0,1,0,1,1]],"gridR":[[1,1,1,1,1,1,1,0,0,0,1,1,1,0,1,0,1,0,1,1],[1,1,1,0,0,1,0,1,0,0,0,0,0,1,0,0,1,1,0,1],[0,1,0,1,0,1,1,0,1,1,0,1,1,0,1,1,1,1,1,1],[1,0,0,1,0,1,0,1,0,1,0,1,0,1,1,1,1,1,1,1],[0,0,1,1,1,0,0,1,0,1,1,0,1,0,0,0,1,1,0,0],[0,0,0,0,1,0,0,1,1,0,1,0,0,0,1,1,0,1,0,0],[0,0,0,0,0,0,1,0,0,0,0,0,0,0,1,0,0,1,1,1],[1,1,1,1,0,0,0,1,1,1,1,1,1,1,1,0,1,0,1,1],[1,0,0,1,0,0,0,1,1,1,0,1,0,1,0,1,1,0,1,1],[0,0,0,0,1,1,0,0,1,1,1,1,0,1,1,0,1,0,1,0],[1,1,0,1,0,0,0,1,0,1,1,1,1,1,0,0,0,0,1,0],[1,0,1,1,0,1,0,0,0,0,0,0,0,1,0,0,0,0,0,1],[0,0,0,0,1,0,1,1,0,0,1,0,1,0,0,1,1,0,0,0],[1,1,1,1,1,1,1,1,0,1,1,1,1,0,1,0,0,1,1,1],[0,0,1,1,0,1,0,1,1,1,1,1,1,0,0,1,1,0,0,1],[1,0,1,1,1,0,0,0,1,1,0,1,1,0,0,1,1,1,0,1],[0,0,1,0,0,0,1,1,0,0,0,1,1,1,1,1,1,1,0,1],[1,1,1,0,0,1,0,0,0,0,1,0,1,1,1,0,1,1,0,0],[1,1,0,0,1,1,0,1,0,0,0,0,1,0,0,1,1,1,0,0],[0,1,1,1,1,0,1,1,0,1,0,1,0,1,0,0,1,1,0,1]],"displayWidth":172,"displayHeight":172,"spacing":100,"style":{"gridBorderColor":"#ffffff","gridBorderWidth":"3","dotColor":"#ffffff","dotLineWidth":"1"}},"pluginResponse":[{"startTime":127124.00000030175,"rt":2060.0000000558794,"response":[{"id":0,"name":"Left","answer":50,"prompt":"Left","lastChangedTime":null},{"id":1,"name":"Right","answer":"11","prompt":"Right","lastChangedTime":128783.9999999851}],"stimulusOffTime":899.9999999068677,"trial_type":"canvas-sliders-response","trial_index":38,"time_elapsed":128966,"internal_node_id":"0.0-13.0-0.4"},{"choiceTime":0,"choice":3,"totalTime":2002.0000003278255,"image":"http://localhost:8080/ExploringSocialMetacognition/assets/image/advisor1.png","adviceTime":2002.0000003278255,"trial_type":"jspsych-jas-present-advice-choice","trial_index":39,"time_elapsed":130968,"internal_node_id":"0.0-13.0-1.4"},{"startTime":131188.00000008196,"rt":1016.9999999925494,"response":[{"id":0,"name":"Left","answer":50,"prompt":"Left","lastChangedTime":null},{"id":1,"name":"Right","answer":"29","prompt":"Right","lastChangedTime":131807.0000000298}],"trial_type":"canvas-sliders-response","trial_index":40,"time_elapsed":131986,"internal_node_id":"0.0-13.0-2.4"}],"confidenceCategory":0,"advisorAgrees":true,"advice":{"filePath":"assets/audio/voices/2/right_think.wav","string":"It was on the RIGHT, I think","loaded":true,"loading":true,"data":null,"buffer":{},"side":1,"confidence":0}},{"type":2,"typeName":"choice","block":2,"advisorId":2,"choice":[2,3],"answer":[1,0],"confidence":[8,2],"whichSide":1,"practice":false,"feedback":false,"warnings":[],"stimulusDrawTime":[133108.00000000745],"stimulusOffTime":[899.9999999068677,null],"fixationDrawTime":[132607.0000003092],"id":13,"dotDifference":9,"grid":{"dotCountL":191,"dotCountR":209,"gridWidth":20,"gridHeight":20,"dotWidth":2,"dotHeight":2,"paddingX":6,"paddingY":6,"gridL":[[1,1,1,1,0,1,0,1,0,0,1,0,1,0,0,0,1,1,1,0],[1,0,0,0,1,1,0,0,1,1,0,1,0,1,0,0,0,1,0,0],[1,0,1,0,0,0,1,0,0,1,0,0,0,0,1,0,0,1,1,1],[1,1,1,0,1,0,0,0,1,1,1,0,1,0,0,1,1,1,0,1],[1,1,0,1,1,0,0,0,0,1,1,1,0,1,0,0,1,0,0,1],[0,0,1,0,1,0,0,1,0,1,0,0,1,1,0,1,0,0,0,1],[0,1,0,0,1,1,0,0,0,0,1,1,0,1,0,1,1,0,0,0],[0,0,1,0,0,1,1,1,0,1,0,0,0,0,1,1,0,1,1,0],[0,0,1,1,1,1,0,0,1,0,0,1,1,0,0,1,1,1,1,1],[0,1,0,0,0,0,1,0,0,0,1,1,0,1,1,0,0,1,0,0],[1,0,0,0,0,0,0,1,1,1,0,1,1,0,1,0,1,1,1,1],[0,0,1,1,1,0,1,0,1,1,1,0,1,1,0,1,0,1,1,1],[1,0,1,1,0,0,0,1,1,0,1,1,0,1,0,0,0,1,0,0],[0,0,0,0,1,1,1,1,1,0,0,0,1,0,0,0,0,1,1,1],[0,1,0,0,0,0,1,1,0,0,1,0,0,1,0,0,0,1,1,0],[0,1,1,0,0,0,0,1,0,0,1,1,0,1,0,1,0,1,0,1],[1,0,0,0,1,0,1,0,1,1,0,0,1,0,0,0,1,0,1,0],[1,1,1,1,1,0,1,0,1,1,1,1,0,0,0,1,1,0,1,1],[0,0,1,1,0,1,0,0,0,1,0,1,1,1,0,0,0,0,1,0],[1,0,0,0,0,0,1,1,1,0,1,0,1,0,1,0,0,1,1,1]],"gridR":[[1,1,1,0,1,1,0,1,0,0,1,1,1,0,0,1,1,0,0,1],[0,0,0,1,0,1,1,0,1,0,1,1,0,1,0,1,1,1,1,1],[1,0,0,1,1,0,1,1,0,1,0,0,1,1,0,1,1,0,1,0],[0,1,1,0,1,0,1,0,0,1,0,1,1,0,1,1,0,0,0,1],[1,1,1,1,0,0,1,0,0,0,0,1,0,1,0,0,0,0,1,0],[1,0,1,1,0,1,0,0,1,0,1,1,0,1,1,0,1,1,1,1],[0,0,1,0,0,1,1,1,1,0,1,0,1,1,1,0,0,0,1,1],[1,1,0,1,1,1,1,1,1,1,1,1,0,0,0,0,0,0,1,0],[1,0,0,1,0,0,1,1,1,0,1,1,0,1,1,0,0,0,1,1],[0,1,0,1,0,1,1,0,0,1,1,0,0,1,0,1,0,1,0,1],[0,0,1,1,0,0,1,0,1,1,1,0,1,1,0,0,1,0,1,0],[0,1,1,1,1,0,0,1,1,0,1,0,0,1,0,1,0,0,0,0],[0,0,0,0,1,0,0,1,1,1,1,1,0,1,0,1,0,0,0,1],[1,0,1,0,0,1,1,1,1,1,0,1,1,0,1,1,1,0,1,0],[0,1,1,1,1,0,1,1,1,1,1,1,1,0,1,1,0,1,1,1],[1,0,0,1,1,0,1,1,1,0,1,1,1,1,1,0,0,0,0,1],[0,0,0,1,0,0,1,0,1,0,0,0,0,0,0,1,0,0,1,0],[1,0,1,0,1,1,0,1,1,0,1,1,0,1,1,0,0,0,1,0],[0,1,1,0,1,0,0,0,0,0,1,0,0,0,1,0,1,0,0,1],[0,0,1,0,0,1,0,1,0,0,1,0,1,1,0,1,0,0,0,0]],"displayWidth":172,"displayHeight":172,"spacing":100,"style":{"gridBorderColor":"#ffffff","gridBorderWidth":"3","dotColor":"#ffffff","dotLineWidth":"1"}},"pluginResponse":[{"startTime":132407.00000012293,"rt":2097.000000067055,"response":[{"id":0,"name":"Left","answer":50,"prompt":"Left","lastChangedTime":null},{"id":1,"name":"Right","answer":"8","prompt":"Right","lastChangedTime":134104.00000028312}],"stimulusOffTime":899.9999999068677,"trial_type":"canvas-sliders-response","trial_index":41,"time_elapsed":134285,"internal_node_id":"0.0-13.0-0.5"},{"choiceTime":962.9999999888241,"choice":2,"totalTime":2964.9999998509884,"image":"http://localhost:8080/ExploringSocialMetacognition/assets/image/advisor3.png","adviceTime":2001.9999998621643,"trial_type":"jspsych-jas-present-advice-choice","trial_index":42,"time_elapsed":137251,"internal_node_id":"0.0-13.0-1.5"},{"startTime":137471.0000003688,"rt":1785.999999847263,"response":[{"id":0,"name":"Left","answer":2,"prompt":"Left","lastChangedTime":138383.00000037998},{"id":1,"name":"Right","answer":"50","prompt":"Right","lastChangedTime":null}],"trial_type":"canvas-sliders-response","trial_index":43,"time_elapsed":139039,"internal_node_id":"0.0-13.0-2.5"}],"confidenceCategory":0,"advisorAgrees":false,"advice":{"filePath":"assets/audio/voices/3/think_left.wav","string":"I think it was on the LEFT","loaded":true,"loading":true,"data":null,"buffer":{},"side":0,"confidence":0}},{"type":1,"typeName":"force","block":2,"advisorId":3,"choice":[],"answer":[1,1],"confidence":[14,6],"whichSide":1,"practice":false,"feedback":false,"warnings":[],"stimulusDrawTime":[140160.000000149],"stimulusOffTime":[899.9999999068677,null],"fixationDrawTime":[139658.9999999851],"id":14,"dotDifference":6,"grid":{"dotCountL":194,"dotCountR":206,"gridWidth":20,"gridHeight":20,"dotWidth":2,"dotHeight":2,"paddingX":6,"paddingY":6,"gridL":[[1,0,1,1,0,1,0,0,0,1,0,0,0,1,1,0,1,1,1,0],[1,0,0,1,0,0,0,0,0,1,0,0,1,0,0,0,1,1,0,0],[0,0,0,1,0,0,0,0,1,0,0,0,0,1,1,1,1,0,0,1],[1,1,1,0,1,1,0,0,0,0,1,1,0,0,1,0,1,0,0,1],[0,0,1,0,0,0,0,1,1,1,1,0,1,0,0,1,0,1,0,1],[1,1,0,1,0,0,0,1,0,1,0,0,1,1,1,1,0,0,1,0],[0,1,1,1,0,0,0,0,0,1,1,0,1,0,0,0,0,0,1,1],[1,1,0,1,1,0,1,1,0,0,0,1,0,1,0,1,1,1,1,1],[0,1,1,1,0,0,0,1,1,0,0,1,0,1,1,0,1,1,1,1],[0,0,0,1,0,1,0,1,0,1,1,0,1,1,0,1,0,0,1,1],[0,0,0,1,1,1,0,1,1,0,0,1,1,0,1,1,1,1,0,0],[0,0,0,0,1,0,1,0,1,1,1,1,1,1,0,0,1,1,1,0],[1,1,1,0,0,0,0,1,1,0,0,0,0,1,1,1,0,1,1,1],[0,1,0,1,1,0,0,1,1,0,0,0,1,1,0,1,1,1,1,0],[1,0,1,0,1,0,1,0,0,0,0,1,0,0,1,1,0,1,1,1],[1,1,0,0,0,0,0,1,0,0,0,0,1,0,1,0,1,1,0,0],[0,1,0,1,1,1,0,1,1,0,0,0,1,0,1,1,0,0,1,1],[0,1,0,0,0,1,0,1,1,0,0,0,1,0,1,1,0,0,0,1],[0,1,1,0,1,0,0,0,0,0,1,0,1,0,0,0,0,1,1,1],[1,0,1,0,1,0,1,0,1,1,0,1,1,0,1,1,0,0,0,1]],"gridR":[[0,1,0,0,1,0,0,1,0,1,1,0,1,1,0,1,1,1,0,1],[0,0,1,1,1,0,1,1,1,1,1,1,1,0,1,1,0,0,0,1],[1,1,1,0,1,0,0,0,1,0,1,0,0,0,0,1,0,1,0,0],[0,1,0,0,1,0,1,1,1,0,1,1,0,0,0,1,0,0,0,0],[0,1,1,1,1,1,1,0,0,1,1,0,1,1,0,0,1,0,1,0],[0,0,1,1,0,0,0,1,1,1,1,0,0,1,1,1,0,1,1,0],[1,0,0,1,0,1,1,1,0,1,1,0,1,0,0,0,1,0,0,0],[0,1,0,0,0,1,0,0,0,1,1,0,0,1,0,0,1,0,0,0],[1,1,1,1,0,1,1,0,1,0,1,1,0,0,1,1,1,0,1,1],[0,0,0,0,0,1,0,1,1,1,1,1,0,1,1,1,0,0,1,1],[1,1,0,0,1,0,0,1,1,1,1,0,0,0,0,0,0,0,0,0],[0,0,0,1,0,0,0,0,1,1,1,0,1,1,0,0,1,0,1,1],[1,1,0,0,1,0,0,0,1,0,0,1,1,1,0,1,1,1,0,0],[1,0,1,0,0,0,0,0,1,1,1,0,1,1,0,1,0,0,0,1],[0,0,0,0,0,1,0,1,1,0,1,0,0,0,0,0,1,0,0,1],[1,1,1,1,0,0,1,1,1,0,1,0,0,1,1,1,0,1,1,0],[0,1,1,1,0,0,0,1,0,0,1,0,1,1,0,1,0,1,1,0],[1,1,1,1,1,0,0,0,1,1,0,0,1,0,0,1,1,1,1,1],[1,1,1,0,1,0,1,1,1,1,0,0,1,1,1,0,1,0,0,1],[1,1,1,1,1,1,1,0,1,0,0,1,0,1,0,0,1,1,1,0]],"displayWidth":172,"displayHeight":172,"spacing":100,"style":{"gridBorderColor":"#ffffff","gridBorderWidth":"3","dotColor":"#ffffff","dotLineWidth":"1"}},"pluginResponse":[{"startTime":139459.0000002645,"rt":2540.000000037253,"response":[{"id":0,"name":"Left","answer":50,"prompt":"Left","lastChangedTime":null},{"id":1,"name":"Right","answer":"14","prompt":"Right","lastChangedTime":141250}],"stimulusOffTime":899.9999999068677,"trial_type":"canvas-sliders-response","trial_index":44,"time_elapsed":141780,"internal_node_id":"0.0-13.0-0.6"},{"choiceTime":0,"choice":3,"totalTime":2001.9999998621643,"image":"http://localhost:8080/ExploringSocialMetacognition/assets/image/advisor1.png","adviceTime":2001.9999998621643,"trial_type":"jspsych-jas-present-advice-choice","trial_index":45,"time_elapsed":143784,"internal_node_id":"0.0-13.0-1.6"},{"startTime":144004.00000019,"rt":1222.0000000670552,"response":[{"id":0,"name":"Left","answer":50,"prompt":"Left","lastChangedTime":null},{"id":1,"name":"Right","answer":"6","prompt":"Right","lastChangedTime":144660.000000149}],"trial_type":"canvas-sliders-response","trial_index":46,"time_elapsed":145008,"internal_node_id":"0.0-13.0-2.6"}],"confidenceCategory":0,"advisorAgrees":false,"advice":{"filePath":"assets/audio/voices/2/think_left.wav","string":"I think it was on the LEFT","loaded":true,"loading":true,"data":null,"buffer":{},"side":0,"confidence":0}},{"type":2,"typeName":"choice","block":2,"advisorId":2,"choice":[3,2],"answer":[0,0],"confidence":[44,34],"whichSide":1,"practice":false,"feedback":false,"warnings":[],"stimulusDrawTime":[146128.00000002608],"stimulusOffTime":[901.0000000707805,null],"fixationDrawTime":[145628.00000002608],"id":15,"dotDifference":3,"grid":{"dotCountL":197,"dotCountR":203,"gridWidth":20,"gridHeight":20,"dotWidth":2,"dotHeight":2,"paddingX":6,"paddingY":6,"gridL":[[0,0,0,0,0,0,0,0,0,1,0,0,0,0,0,0,0,0,0,0],[1,1,0,1,0,1,1,0,0,1,1,0,1,1,1,0,1,0,1,0],[0,1,0,0,1,0,0,1,0,1,1,0,1,0,0,0,1,0,0,1],[0,1,0,1,1,1,1,0,1,1,0,1,0,1,0,1,0,0,1,0],[1,0,0,1,1,0,0,0,1,0,1,0,1,0,0,1,0,0,0,0],[0,1,1,1,0,0,0,0,0,0,0,0,1,0,1,0,1,1,0,1],[1,1,0,1,0,0,1,1,1,1,0,1,1,0,0,1,1,0,1,0],[1,1,1,0,1,0,0,1,1,0,0,1,0,0,1,1,0,1,1,1],[0,1,0,0,1,0,0,0,0,1,0,1,1,0,1,0,0,0,0,0],[1,1,0,1,1,0,0,0,0,0,1,1,0,1,1,0,0,1,1,1],[0,1,1,0,1,0,1,1,1,1,0,1,1,1,1,0,1,1,0,1],[1,1,1,0,1,1,0,1,0,1,1,1,0,1,1,0,1,0,0,0],[0,0,1,1,1,1,0,0,1,1,1,1,1,0,0,0,1,0,1,1],[0,1,1,0,0,1,1,0,0,0,1,0,0,0,1,0,1,0,0,1],[0,1,0,0,1,0,0,1,1,0,1,0,1,1,0,0,1,1,0,0],[1,0,1,0,0,1,0,1,1,0,0,1,1,1,0,1,1,1,0,0],[0,1,1,0,0,0,1,0,1,0,1,0,0,0,1,1,0,1,1,1],[1,1,1,0,1,1,0,0,1,1,1,0,0,1,1,1,1,1,1,0],[0,0,1,1,0,0,0,0,1,1,0,0,0,0,1,1,1,1,1,0],[0,0,1,1,1,1,0,0,1,0,0,0,1,0,1,1,1,0,1,0]],"gridR":[[0,1,0,1,0,0,1,0,1,0,1,0,0,1,0,1,1,0,1,0],[1,0,0,1,0,0,0,0,1,1,1,1,1,1,1,0,0,1,1,0],[1,0,1,1,0,1,1,1,1,0,0,0,0,1,1,1,0,0,0,0],[1,1,1,1,0,0,0,1,1,1,0,1,0,1,1,1,0,1,1,1],[1,0,1,0,1,0,1,1,1,0,0,0,1,1,0,1,1,1,1,0],[1,0,1,0,0,1,0,0,0,0,0,0,0,1,1,0,0,1,0,1],[0,1,1,1,0,1,1,1,0,0,1,1,1,0,1,0,0,1,1,1],[1,1,0,1,1,0,1,1,0,1,0,0,0,0,0,0,0,0,1,0],[1,0,0,0,1,1,0,1,0,1,0,1,1,0,1,1,1,0,0,0],[1,0,0,1,0,0,1,0,1,0,0,0,1,1,0,1,0,0,0,1],[0,0,1,0,1,1,0,1,0,0,0,1,1,0,0,0,1,1,0,0],[0,1,0,1,1,1,1,1,1,1,1,0,1,1,0,1,0,1,0,1],[1,1,0,0,1,0,1,1,0,1,0,0,1,0,0,1,1,1,0,0],[1,1,1,0,1,1,0,0,0,1,0,0,0,0,0,0,1,0,0,0],[1,0,1,1,0,1,1,0,0,1,0,0,1,0,1,0,0,1,0,1],[1,1,1,0,1,0,0,1,0,1,0,0,0,0,1,1,0,0,0,1],[1,1,0,0,0,0,1,1,0,1,0,0,0,1,0,0,1,1,1,0],[0,0,0,1,0,1,1,1,0,1,0,1,1,1,1,0,0,1,0,0],[1,0,1,1,1,1,0,1,1,1,0,0,1,1,1,0,0,0,0,1],[1,1,1,1,0,1,0,0,0,1,1,1,1,1,0,0,0,0,1,1]],"displayWidth":172,"displayHeight":172,"spacing":100,"style":{"gridBorderColor":"#ffffff","gridBorderWidth":"3","dotColor":"#ffffff","dotLineWidth":"1"}},"pluginResponse":[{"startTime":145428.00000030547,"rt":2179.0000000037253,"response":[{"id":0,"name":"Left","answer":44,"prompt":"Left","lastChangedTime":147109.00000017136},{"id":1,"name":"Right","answer":"50","prompt":"Right","lastChangedTime":null}],"stimulusOffTime":901.0000000707805,"trial_type":"canvas-sliders-response","trial_index":47,"time_elapsed":147389,"internal_node_id":"0.0-13.0-0.7"},{"choiceTime":837.0000002905726,"choice":2,"totalTime":2840.0000003166497,"image":"http://localhost:8080/ExploringSocialMetacognition/assets/image/advisor3.png","adviceTime":2003.000000026077,"trial_type":"jspsych-jas-present-advice-choice","trial_index":48,"time_elapsed":150229,"internal_node_id":"0.0-13.0-1.7"},{"startTime":150449.00000002235,"rt":1663.0000001750886,"response":[{"id":0,"name":"Left","answer":34,"prompt":"Left","lastChangedTime":151405.99999995902},{"id":1,"name":"Right","answer":"50","prompt":"Right","lastChangedTime":null}],"trial_type":"canvas-sliders-response","trial_index":49,"time_elapsed":151894,"internal_node_id":"0.0-13.0-2.7"}],"confidenceCategory":1,"advisorAgrees":true,"advice":{"filePath":"assets/audio/voices/3/right_think.wav","string":"It was on the RIGHT, I think","loaded":true,"loading":true,"data":null,"buffer":{},"side":1,"confidence":0}},{"type":1,"typeName":"force","block":2,"advisorId":2,"choice":[],"answer":[0,0],"confidence":[72,59],"whichSide":0,"practice":false,"feedback":false,"warnings":[],"stimulusDrawTime":[153015.00000013039],"stimulusOffTime":[901.999999769032,null],"fixationDrawTime":[152515.00000013039],"id":16,"dotDifference":6,"grid":{"dotCountL":206,"dotCountR":194,"gridWidth":20,"gridHeight":20,"dotWidth":2,"dotHeight":2,"paddingX":6,"paddingY":6,"gridL":[[0,0,1,0,0,1,1,0,0,0,0,1,1,1,1,0,0,0,0,1],[1,1,0,0,0,0,1,1,1,1,0,1,1,0,0,0,0,1,1,1],[0,1,1,1,0,1,1,1,0,0,0,1,1,0,1,1,0,0,1,1],[0,1,1,0,0,1,1,0,0,0,1,0,0,1,1,0,1,0,0,0],[1,0,0,0,1,1,1,0,1,0,0,0,0,1,1,1,1,0,0,0],[1,0,0,0,1,1,1,0,1,1,1,0,0,1,1,0,0,0,0,0],[1,0,0,1,1,0,1,0,1,0,1,1,0,0,0,0,0,1,0,0],[1,0,0,0,1,1,1,1,0,0,0,1,0,1,1,0,0,0,1,1],[1,0,1,1,1,0,1,0,0,0,1,1,0,0,1,0,0,0,1,0],[0,0,0,1,1,0,1,1,1,1,1,1,1,1,1,1,1,0,1,0],[1,0,1,0,0,0,0,1,1,1,0,0,0,1,0,1,1,1,0,0],[0,0,0,1,1,1,0,1,0,0,0,1,1,1,0,1,1,1,1,0],[1,1,1,0,0,1,1,0,1,0,1,0,0,0,1,1,0,1,1,1],[0,1,1,1,0,0,0,1,1,0,1,1,0,1,1,1,1,0,1,1],[1,0,0,0,0,1,0,1,0,1,0,1,1,0,1,0,0,0,0,1],[1,0,1,1,1,1,1,1,1,1,1,0,0,0,1,1,0,0,0,0],[1,0,1,1,1,1,1,0,1,1,1,0,1,0,0,1,1,1,1,0],[1,0,1,1,0,0,0,0,1,1,0,0,0,1,0,1,1,0,1,1],[1,0,1,1,1,1,1,1,0,1,1,0,1,1,1,1,0,0,0,0],[0,0,0,0,0,1,0,0,0,1,0,1,0,1,1,0,1,0,0,0]],"gridR":[[0,0,0,0,1,1,0,0,1,1,1,1,1,0,1,1,0,0,1,0],[1,1,1,1,0,0,0,0,0,0,1,0,0,0,1,0,1,0,1,1],[1,0,1,1,0,0,0,0,1,0,0,1,0,1,1,1,1,1,0,0],[1,1,1,1,0,0,1,0,1,0,1,1,0,0,0,1,1,0,0,1],[1,1,0,0,0,0,0,1,1,1,0,1,0,0,0,0,1,1,1,1],[1,0,0,1,0,0,0,1,1,1,0,0,1,0,0,0,1,1,0,0],[0,0,0,1,0,0,1,0,1,0,1,1,1,0,0,1,1,1,0,1],[0,0,1,1,0,0,0,1,1,0,1,0,0,0,0,1,0,1,0,0],[0,0,0,0,0,1,1,1,0,0,1,0,1,0,0,0,0,0,0,1],[1,1,0,1,0,1,1,1,1,1,1,0,0,1,0,1,1,0,0,0],[0,0,1,1,1,0,1,0,0,1,1,0,0,1,0,0,1,0,0,0],[0,0,0,1,0,1,0,0,0,1,1,1,1,1,1,1,1,1,0,0],[1,1,1,1,0,0,1,0,1,1,1,1,1,0,1,0,1,1,0,1],[1,1,1,0,1,1,0,0,0,0,1,0,0,1,0,0,0,1,1,0],[0,1,0,1,1,0,0,0,0,1,1,1,1,1,1,1,1,0,1,1],[0,0,0,1,1,0,0,0,1,0,1,1,0,0,1,1,0,0,1,0],[0,0,1,0,0,0,0,0,1,1,0,0,0,1,1,1,1,0,1,1],[0,1,0,1,1,0,1,1,1,1,1,0,0,0,0,1,1,0,0,1],[1,0,1,1,0,0,1,1,1,1,1,0,1,0,1,0,1,0,0,0],[0,1,0,0,1,0,0,1,0,0,1,0,1,0,0,1,0,1,0,0]],"displayWidth":172,"displayHeight":172,"spacing":100,"style":{"gridBorderColor":"#ffffff","gridBorderWidth":"3","dotColor":"#ffffff","dotLineWidth":"1"}},"pluginResponse":[{"startTime":152314.00000024587,"rt":2442.9999999701977,"response":[{"id":0,"name":"Left","answer":72,"prompt":"Left","lastChangedTime":154219.00000004098},{"id":1,"name":"Right","answer":"50","prompt":"Right","lastChangedTime":null}],"stimulusOffTime":901.999999769032,"trial_type":"canvas-sliders-response","trial_index":50,"time_elapsed":154538,"internal_node_id":"0.0-13.0-0.8"},{"choiceTime":0,"choice":2,"totalTime":2001.9999998621643,"image":"http://localhost:8080/ExploringSocialMetacognition/assets/image/advisor3.png","adviceTime":2001.9999998621643,"trial_type":"jspsych-jas-present-advice-choice","trial_index":51,"time_elapsed":156541,"internal_node_id":"0.0-13.0-1.8"},{"startTime":156761.00000040606,"rt":1311.9999999180436,"response":[{"id":0,"name":"Left","answer":59,"prompt":"Left","lastChangedTime":157424.00000011548},{"id":1,"name":"Right","answer":"50","prompt":"Right","lastChangedTime":null}],"trial_type":"canvas-sliders-response","trial_index":52,"time_elapsed":157855,"internal_node_id":"0.0-13.0-2.8"}],"confidenceCategory":2,"advisorAgrees":false,"advice":{"filePath":"assets/audio/voices/3/right_think.wav","string":"It was on the RIGHT, I think","loaded":true,"loading":true,"data":null,"buffer":{},"side":1,"confidence":0}},{"type":2,"typeName":"choice","block":2,"advisorId":3,"choice":[2,3],"answer":[1,1],"confidence":[12,35],"whichSide":1,"practice":false,"feedback":false,"warnings":[],"stimulusDrawTime":[158975.00000009313],"stimulusOffTime":[899.9999999068677,null],"fixationDrawTime":[158476.00000025705],"id":17,"dotDifference":6,"grid":{"dotCountL":194,"dotCountR":206,"gridWidth":20,"gridHeight":20,"dotWidth":2,"dotHeight":2,"paddingX":6,"paddingY":6,"gridL":[[1,0,0,0,0,1,0,0,1,0,1,1,0,1,0,0,1,0,0,1],[1,0,0,1,0,0,0,1,1,0,0,1,0,1,1,1,0,0,1,0],[0,0,0,1,0,1,0,0,0,1,1,0,0,1,1,0,0,1,0,1],[1,0,1,1,0,0,1,0,1,1,0,1,1,1,0,0,1,1,0,0],[1,0,1,0,0,1,1,0,1,0,1,1,1,0,1,1,1,0,0,0],[0,0,0,0,1,1,1,1,0,1,1,1,1,1,1,1,0,0,1,0],[0,0,0,1,0,0,1,1,0,0,1,1,1,0,1,0,1,0,1,0],[1,1,1,0,1,0,1,0,0,1,0,1,0,0,1,1,1,0,1,0],[0,1,0,1,0,0,1,0,1,1,1,1,0,1,0,0,1,1,0,0],[1,1,0,1,0,0,1,1,1,1,1,1,0,1,1,0,0,1,1,0],[0,0,0,0,1,0,1,0,1,0,0,0,1,0,1,1,0,0,0,1],[0,0,0,1,0,0,0,0,1,0,1,0,0,1,1,0,1,1,1,0],[1,0,0,1,1,1,0,0,1,0,0,1,1,0,0,1,0,0,1,1],[1,0,0,0,0,1,1,1,0,0,1,0,1,1,0,0,1,1,1,1],[0,0,0,1,0,0,1,1,0,1,0,0,1,0,0,0,0,0,1,1],[1,1,1,0,0,0,1,1,0,0,0,1,1,0,1,0,0,1,0,1],[0,1,1,0,0,1,0,1,1,1,0,1,1,1,1,0,0,0,0,1],[0,0,1,0,1,1,1,1,0,1,1,0,0,0,0,0,1,1,0,1],[1,0,0,0,0,0,1,1,1,1,1,0,1,0,1,0,0,0,0,1],[0,0,0,0,0,1,1,0,0,1,0,1,0,1,1,0,1,1,1,0]],"gridR":[[1,1,1,1,1,0,0,1,1,0,0,0,0,1,1,0,1,0,0,1],[1,1,0,0,1,0,1,0,0,1,1,1,1,1,0,0,1,0,1,0],[0,1,1,1,0,1,0,1,1,1,0,0,1,1,0,0,0,1,1,0],[0,0,1,1,1,1,1,0,1,1,1,1,0,0,1,0,0,0,0,1],[0,1,1,1,0,1,0,1,1,0,1,0,1,1,0,0,1,0,1,1],[1,0,0,0,0,1,1,1,1,0,1,0,0,0,0,1,0,1,1,0],[1,1,0,0,1,0,1,0,1,1,1,1,1,0,0,0,1,0,0,1],[0,0,1,0,1,1,0,1,0,0,0,1,0,0,0,1,1,0,1,1],[1,0,0,1,0,0,1,1,0,0,0,0,1,0,0,0,1,0,0,1],[1,1,0,1,1,1,0,1,1,0,0,1,0,0,0,1,1,0,0,0],[0,0,1,0,0,1,0,1,1,1,1,0,1,0,0,1,0,0,1,1],[1,0,1,0,0,1,0,1,0,0,1,0,0,0,1,1,1,0,1,0],[1,1,0,0,0,0,1,1,1,0,0,1,0,1,0,1,1,1,0,0],[0,1,1,0,0,0,0,1,1,1,1,1,1,0,0,1,1,1,0,1],[1,1,1,1,1,0,0,1,1,0,1,0,0,0,1,1,1,1,1,1],[0,1,1,1,0,1,1,0,0,1,1,0,1,1,0,0,1,0,0,0],[1,0,0,1,0,0,0,0,1,0,0,0,1,1,0,1,1,1,1,1],[0,0,1,1,1,1,1,1,1,1,1,1,0,1,1,0,1,1,0,0],[1,0,1,1,0,1,0,0,0,0,0,1,0,0,1,0,0,1,1,0],[1,0,0,1,0,1,0,0,1,1,0,0,0,1,0,0,1,0,0,0]],"displayWidth":172,"displayHeight":172,"spacing":100,"style":{"gridBorderColor":"#ffffff","gridBorderWidth":"3","dotColor":"#ffffff","dotLineWidth":"1"}},"pluginResponse":[{"startTime":158275.00000037253,"rt":2101.9999999552965,"response":[{"id":0,"name":"Left","answer":50,"prompt":"Left","lastChangedTime":null},{"id":1,"name":"Right","answer":"12","prompt":"Right","lastChangedTime":159967.0000001788}],"stimulusOffTime":899.9999999068677,"trial_type":"canvas-sliders-response","trial_index":53,"time_elapsed":160159,"internal_node_id":"0.0-13.0-0.9"},{"choiceTime":900.000000372529,"choice":3,"totalTime":2902.0000002346933,"image":"http://localhost:8080/ExploringSocialMetacognition/assets/image/advisor1.png","adviceTime":2001.9999998621643,"trial_type":"jspsych-jas-present-advice-choice","trial_index":54,"time_elapsed":163060,"internal_node_id":"0.0-13.0-1.9"},{"startTime":163282.00000012293,"rt":1154.0000000968575,"response":[{"id":0,"name":"Left","answer":50,"prompt":"Left","lastChangedTime":null},{"id":1,"name":"Right","answer":"35","prompt":"Right","lastChangedTime":163959.0000002645}],"trial_type":"canvas-sliders-response","trial_index":55,"time_elapsed":164218,"internal_node_id":"0.0-13.0-2.9"}],"confidenceCategory":0,"advisorAgrees":true,"advice":{"filePath":"assets/audio/voices/2/right_think.wav","string":"It was on the RIGHT, I think","loaded":true,"loading":true,"data":null,"buffer":{},"side":1,"confidence":0}},{"type":2,"typeName":"choice","block":2,"advisorId":3,"choice":[3,2],"answer":[1,1],"confidence":[6,17],"whichSide":1,"practice":false,"feedback":false,"warnings":["Difficulty at maximum!"],"stimulusDrawTime":[165339.00000015274],"stimulusOffTime":[899.9999999068677,null],"fixationDrawTime":[164837.99999998882],"id":18,"dotDifference":3,"grid":{"dotCountL":197,"dotCountR":203,"gridWidth":20,"gridHeight":20,"dotWidth":2,"dotHeight":2,"paddingX":6,"paddingY":6,"gridL":[[0,0,0,1,0,0,0,1,0,0,1,1,1,1,0,1,1,0,1,0],[1,0,0,0,1,1,0,0,1,1,1,1,0,0,0,1,1,0,1,0],[1,0,1,0,1,1,1,0,1,1,1,0,0,0,0,0,0,1,1,0],[0,1,1,0,0,1,0,1,1,0,0,1,1,1,0,0,1,1,1,1],[0,0,0,0,0,0,1,0,1,1,1,0,0,0,0,1,0,0,1,0],[1,0,1,0,0,0,1,1,1,1,0,1,0,0,0,1,1,0,0,1],[1,1,0,0,1,0,0,1,0,0,1,1,0,1,0,0,0,0,1,1],[1,0,0,1,1,0,0,1,0,1,1,0,0,0,1,1,0,0,0,1],[0,0,0,1,0,0,0,0,1,1,1,0,1,1,1,1,1,0,1,0],[1,1,0,1,1,1,1,1,1,1,1,0,1,0,0,0,1,0,0,1],[0,1,1,1,0,0,0,1,1,1,1,1,1,0,0,1,0,1,1,1],[0,1,0,1,1,1,0,0,1,1,1,1,0,1,1,1,0,0,1,1],[0,0,0,0,0,0,1,0,0,1,0,0,0,0,0,0,0,0,1,1],[0,1,0,1,1,1,1,1,1,1,1,0,0,0,1,1,0,0,1,1],[1,1,0,1,0,1,1,0,0,0,1,0,1,0,1,1,1,1,1,0],[1,1,1,1,1,0,0,0,0,0,1,0,1,0,0,0,0,0,0,1],[0,0,1,1,0,1,0,1,0,0,0,0,0,1,0,1,1,0,0,0],[1,0,0,0,0,0,1,0,0,1,1,0,1,1,0,1,1,0,1,0],[1,0,1,0,1,1,0,0,0,0,0,1,0,1,1,1,0,0,1,1],[0,0,1,0,1,1,0,1,1,0,0,1,1,0,0,1,0,1,0,1]],"gridR":[[1,0,0,0,1,1,1,0,0,1,1,1,0,0,1,0,0,0,0,1],[1,1,1,0,0,0,1,0,1,1,0,0,0,1,1,0,0,1,0,1],[1,1,1,1,0,0,1,0,0,0,1,1,1,0,1,1,1,0,0,1],[0,1,1,1,0,0,0,0,1,1,0,1,1,0,0,0,1,0,1,1],[0,1,1,1,0,1,1,0,1,0,1,1,1,0,1,0,1,1,1,0],[0,0,1,0,0,0,1,0,1,0,1,0,0,1,0,0,0,1,0,1],[1,0,1,1,0,0,1,0,0,0,1,1,1,1,0,0,0,1,0,1],[1,0,1,0,0,0,0,1,0,1,1,1,0,0,1,1,0,0,0,1],[1,0,1,0,1,0,0,1,0,0,0,1,1,1,1,0,0,1,0,0],[0,1,0,0,1,1,1,0,0,0,1,1,0,0,0,1,0,0,0,0],[0,1,1,1,0,0,1,0,0,1,0,1,1,1,0,0,0,1,1,1],[0,1,1,0,0,0,1,1,0,1,1,1,0,0,0,0,0,0,1,1],[1,0,1,1,1,0,1,0,0,0,0,1,0,1,1,0,0,1,1,1],[1,0,0,1,1,1,0,0,1,1,1,0,0,0,1,1,0,1,1,0],[0,0,0,1,0,1,0,0,1,1,1,1,0,1,0,1,0,1,0,1],[1,1,1,0,1,0,1,1,1,1,0,0,1,1,0,1,1,0,1,1],[0,0,0,0,1,1,0,1,0,1,0,0,1,1,1,1,1,0,0,0],[1,0,0,1,1,1,0,0,0,1,0,1,1,0,1,0,1,0,1,1],[1,1,0,1,1,1,1,1,1,1,0,0,1,0,1,0,1,0,0,1],[0,1,0,0,0,1,1,0,0,0,0,0,1,1,1,0,1,1,0,0]],"displayWidth":172,"displayHeight":172,"spacing":100,"style":{"gridBorderColor":"#ffffff","gridBorderWidth":"3","dotColor":"#ffffff","dotLineWidth":"1"}},"pluginResponse":[{"startTime":164638.00000026822,"rt":2211.9999998249114,"response":[{"id":0,"name":"Left","answer":50,"prompt":"Left","lastChangedTime":null},{"id":1,"name":"Right","answer":"6","prompt":"Right","lastChangedTime":166430.00000016764}],"stimulusOffTime":899.9999999068677,"trial_type":"canvas-sliders-response","trial_index":56,"time_elapsed":166631,"internal_node_id":"0.0-13.0-0.10"},{"choiceTime":953.0000002123415,"choice":3,"totalTime":2955.000000074506,"image":"http://localhost:8080/ExploringSocialMetacognition/assets/image/advisor1.png","adviceTime":2001.9999998621643,"trial_type":"jspsych-jas-present-advice-choice","trial_index":57,"time_elapsed":169585,"internal_node_id":"0.0-13.0-1.10"},{"startTime":169806.00000033155,"rt":1305.9999998658895,"response":[{"id":0,"name":"Left","answer":50,"prompt":"Left","lastChangedTime":null},{"id":1,"name":"Right","answer":"17","prompt":"Right","lastChangedTime":170589.00000015274}],"trial_type":"canvas-sliders-response","trial_index":58,"time_elapsed":170893,"internal_node_id":"0.0-13.0-2.10"}],"confidenceCategory":0,"advisorAgrees":true,"advice":{"filePath":"assets/audio/voices/2/think_right.wav","string":"I think it was on the RIGHT","loaded":true,"loading":true,"data":null,"buffer":{},"side":1,"confidence":0}},{"type":1,"typeName":"force","block":2,"advisorId":3,"choice":[],"answer":[0,0],"confidence":[78,66],"whichSide":0,"practice":false,"feedback":false,"warnings":["Difficulty at maximum!"],"stimulusDrawTime":[172013.99999996647],"stimulusOffTime":[899.9999999068677,null],"fixationDrawTime":[171515.00000013039],"id":19,"dotDifference":1,"grid":{"dotCountL":201,"dotCountR":199,"gridWidth":20,"gridHeight":20,"dotWidth":2,"dotHeight":2,"paddingX":6,"paddingY":6,"gridL":[[1,0,0,0,1,1,0,0,0,0,0,1,1,1,0,0,0,1,1,1],[1,0,1,1,0,1,0,0,0,1,1,1,0,0,0,1,1,0,1,1],[0,0,1,0,1,0,0,1,1,1,1,1,0,0,1,0,0,0,0,1],[0,0,0,0,1,1,1,0,0,1,0,0,1,1,0,0,0,1,0,1],[1,1,1,0,1,0,1,0,0,0,1,1,1,1,1,1,0,1,0,0],[0,1,0,1,1,1,0,1,1,1,1,0,1,0,0,1,1,0,0,1],[0,0,1,0,0,0,0,1,1,1,0,0,1,0,1,0,1,1,1,0],[0,1,0,1,1,1,1,1,1,0,1,1,0,1,1,1,1,0,1,1],[0,0,0,1,0,1,0,0,0,0,1,1,1,1,1,1,1,0,0,0],[1,0,0,1,0,1,1,1,0,1,1,1,1,1,0,0,0,0,0,0],[1,0,1,1,0,1,0,1,0,0,0,0,0,1,1,1,0,1,1,0],[0,0,0,0,1,1,1,0,1,0,0,0,1,1,0,1,0,1,0,0],[1,1,0,1,1,1,1,0,0,0,0,1,0,0,0,1,1,1,0,1],[0,0,0,0,0,0,0,0,1,0,1,0,1,0,1,0,1,1,1,1],[0,1,0,0,0,0,1,0,0,0,0,1,1,0,0,1,0,0,0,0],[0,0,1,0,0,1,1,1,0,0,0,1,0,1,1,1,1,1,1,0],[1,0,0,1,1,0,1,1,0,1,0,1,0,0,1,1,1,1,0,0],[0,0,0,1,1,1,1,1,0,1,1,1,1,0,1,1,0,1,1,1],[1,0,1,1,0,1,1,0,0,0,1,1,0,0,0,0,0,1,1,0],[0,0,0,0,1,1,0,0,0,0,1,0,1,1,1,1,1,1,1,0]],"gridR":[[0,0,1,0,1,0,1,1,0,1,0,1,1,1,1,0,0,0,0,1],[0,0,1,1,0,0,1,0,0,1,1,1,0,0,0,1,1,1,0,0],[1,1,0,0,0,1,0,0,1,1,1,1,1,1,1,0,0,1,1,0],[0,1,1,0,0,0,1,1,1,0,1,0,0,1,0,0,1,0,0,0],[1,0,0,1,1,0,1,1,0,0,0,0,0,1,0,1,0,0,0,0],[0,0,1,0,0,1,0,1,0,1,1,1,0,1,0,0,0,1,1,1],[1,1,1,1,0,0,1,0,0,0,0,1,1,0,0,1,0,0,1,0],[0,1,1,0,1,1,1,1,0,1,1,1,1,0,0,0,0,0,0,0],[1,0,0,1,0,1,1,0,1,1,1,0,1,1,0,0,1,0,0,1],[1,1,1,0,1,1,1,1,0,1,0,0,1,1,0,1,0,0,0,0],[1,1,1,0,0,0,0,1,0,1,1,0,1,0,0,0,1,1,1,0],[1,1,1,0,0,1,1,0,0,1,1,0,0,1,0,1,1,1,1,0],[1,1,0,1,0,1,1,1,1,0,0,0,0,0,0,0,0,1,1,1],[1,1,1,0,1,0,0,1,1,1,1,1,1,1,0,0,0,1,0,0],[0,1,0,1,0,0,1,1,0,1,1,1,1,0,0,1,1,1,1,0],[1,0,1,1,1,0,0,1,0,0,0,1,0,0,0,0,1,0,1,0],[1,1,0,0,0,0,1,1,0,1,1,1,0,0,0,0,0,1,0,1],[0,0,0,0,0,1,0,0,1,0,0,1,1,1,1,0,0,0,0,0],[1,1,0,0,1,0,1,1,1,1,1,1,0,0,1,1,1,0,0,1],[0,1,1,1,1,1,0,0,1,1,0,0,0,1,0,0,1,0,0,1]],"displayWidth":172,"displayHeight":172,"spacing":100,"style":{"gridBorderColor":"#ffffff","gridBorderWidth":"3","dotColor":"#ffffff","dotLineWidth":"1"}},"pluginResponse":[{"startTime":171314.00000024587,"rt":2222.9999997653067,"response":[{"id":0,"name":"Left","answer":78,"prompt":"Left","lastChangedTime":173061.0000002198},{"id":1,"name":"Right","answer":"50","prompt":"Right","lastChangedTime":null}],"stimulusOffTime":899.9999999068677,"trial_type":"canvas-sliders-response","trial_index":59,"time_elapsed":173319,"internal_node_id":"0.0-13.0-0.11"},{"choiceTime":0,"choice":3,"totalTime":2001.9999998621643,"image":"http://localhost:8080/ExploringSocialMetacognition/assets/image/advisor1.png","adviceTime":2001.9999998621643,"trial_type":"jspsych-jas-present-advice-choice","trial_index":60,"time_elapsed":175321,"internal_node_id":"0.0-13.0-1.11"},{"startTime":175541.00000020117,"rt":941.9999998062849,"response":[{"id":0,"name":"Left","answer":66,"prompt":"Left","lastChangedTime":176069.0000001341},{"id":1,"name":"Right","answer":"50","prompt":"Right","lastChangedTime":null}],"trial_type":"canvas-sliders-response","trial_index":61,"time_elapsed":176263,"internal_node_id":"0.0-13.0-2.11"}],"confidenceCategory":2,"advisorAgrees":false,"advice":{"filePath":"assets/audio/voices/2/right_think.wav","string":"It was on the RIGHT, I think","loaded":true,"loading":true,"data":null,"buffer":{},"side":1,"confidence":0}},{"type":2,"typeName":"choice","block":3,"advisorId":3,"choice":[3,2],"answer":[0,0],"confidence":[72,86],"whichSide":1,"practice":false,"feedback":false,"warnings":[],"stimulusDrawTime":[178157.00000012293],"stimulusOffTime":[899.9999999068677,null],"fixationDrawTime":[177657.00000012293],"id":20,"dotDifference":1,"grid":{"dotCountL":199,"dotCountR":201,"gridWidth":20,"gridHeight":20,"dotWidth":2,"dotHeight":2,"paddingX":6,"paddingY":6,"gridL":[[0,0,0,1,0,0,0,0,1,1,0,1,0,1,0,1,0,0,0,1],[1,1,1,0,0,1,1,1,0,0,0,1,0,0,0,1,0,0,0,1],[1,0,0,1,0,1,0,1,1,1,1,0,0,0,1,1,0,1,1,1],[1,0,1,0,0,1,0,0,0,1,0,0,0,1,0,1,1,1,0,1],[1,0,1,1,0,1,1,0,0,0,0,0,0,1,1,0,0,0,1,0],[0,1,1,0,1,1,1,1,0,1,0,0,1,0,0,1,0,0,0,1],[0,0,0,1,0,0,0,0,0,1,0,0,1,0,0,0,0,1,0,1],[0,1,1,1,0,1,0,1,0,0,0,1,1,0,1,1,1,0,0,1],[1,1,0,1,1,1,1,1,1,0,1,1,1,0,1,0,0,0,1,1],[0,1,1,1,1,1,1,0,1,0,1,1,0,0,1,0,1,0,0,1],[0,0,1,1,1,0,1,1,0,1,0,1,0,1,1,0,1,0,1,0],[0,0,0,0,1,1,1,0,1,0,1,1,1,1,0,1,0,0,1,0],[1,0,1,0,1,0,1,0,1,0,1,0,0,1,0,0,0,0,1,0],[1,1,1,0,0,1,1,1,0,0,1,1,1,0,0,0,1,0,1,1],[1,1,0,1,0,1,1,0,0,1,0,1,1,1,1,0,1,0,0,0],[0,0,0,0,1,1,0,1,1,0,0,0,1,0,0,1,0,1,0,1],[0,0,1,0,0,0,1,1,1,1,0,0,1,1,0,1,1,1,0,0],[1,1,0,1,1,0,1,0,1,0,1,1,0,1,1,1,0,0,1,1],[0,0,0,0,1,1,1,0,1,0,0,0,1,1,0,0,1,1,0,1],[1,0,1,0,0,1,0,0,1,1,0,1,1,1,1,0,1,0,0,0]],"gridR":[[1,0,0,1,0,1,0,0,1,0,1,1,1,1,0,0,1,1,0,0],[1,0,1,1,1,1,1,1,1,0,0,1,0,0,1,1,0,0,0,0],[1,1,0,0,0,1,1,0,0,1,1,1,1,0,1,1,0,1,0,1],[1,1,0,1,0,1,0,1,0,1,0,1,0,0,1,1,0,1,1,1],[1,1,0,0,1,0,1,0,0,0,1,1,1,0,0,1,0,0,0,1],[1,0,1,1,0,1,1,1,0,1,0,1,0,1,0,1,0,1,1,0],[0,1,0,0,0,0,1,0,1,0,1,1,1,1,1,1,1,1,0,0],[1,1,0,0,0,0,1,0,0,0,0,0,0,0,0,1,0,0,0,1],[1,1,0,1,1,0,0,1,1,0,0,0,1,1,1,1,0,0,0,1],[1,0,1,0,0,1,0,1,1,1,1,1,1,0,0,1,1,0,0,0],[0,0,0,1,1,1,0,0,1,1,1,0,0,1,0,0,0,1,1,1],[0,1,1,1,1,0,0,0,1,0,1,0,0,0,0,1,0,0,0,0],[1,0,1,0,1,1,0,0,1,1,1,1,1,1,0,0,1,1,0,0],[1,1,0,0,0,0,1,1,0,1,1,1,1,1,0,0,1,1,1,0],[1,1,0,1,1,0,1,1,0,0,1,1,0,0,1,1,1,0,0,0],[0,1,0,1,1,1,1,0,0,0,1,0,1,1,1,0,0,0,0,1],[1,0,0,0,1,0,1,0,0,1,0,0,0,1,0,1,0,1,1,0],[1,1,0,0,1,0,0,0,1,1,1,0,0,0,0,1,0,0,1,0],[0,0,0,1,0,1,1,1,0,1,1,0,0,1,0,0,1,0,1,0],[0,0,0,0,0,1,0,0,0,1,1,1,1,1,1,1,1,1,0,0]],"displayWidth":172,"displayHeight":172,"spacing":100,"style":{"gridBorderColor":"#ffffff","gridBorderWidth":"3","dotColor":"#ffffff","dotLineWidth":"1"}},"pluginResponse":[{"startTime":177457.00000040233,"rt":2179.999999701977,"response":[{"id":0,"name":"Left","answer":72,"prompt":"Left","lastChangedTime":178969.00000004098},{"id":1,"name":"Right","answer":"50","prompt":"Right","lastChangedTime":null}],"stimulusOffTime":899.9999999068677,"trial_type":"canvas-sliders-response","trial_index":63,"time_elapsed":179419,"internal_node_id":"0.0-15.0-0.0"},{"choiceTime":992.0000000856817,"choice":3,"totalTime":2995.0000001117587,"image":"http://localhost:8080/ExploringSocialMetacognition/assets/image/advisor1.png","adviceTime":2003.000000026077,"trial_type":"jspsych-jas-present-advice-choice","trial_index":64,"time_elapsed":182414,"internal_node_id":"0.0-15.0-1.0"},{"startTime":182634.00000007823,"rt":1080.0000000745058,"response":[{"id":0,"name":"Left","answer":86,"prompt":"Left","lastChangedTime":183295.00000039116},{"id":1,"name":"Right","answer":"50","prompt":"Right","lastChangedTime":null}],"trial_type":"canvas-sliders-response","trial_index":65,"time_elapsed":183496,"internal_node_id":"0.0-15.0-2.0"}],"confidenceCategory":2,"advisorAgrees":false,"advice":{"filePath":"assets/audio/voices/2/think_left.wav","string":"I think it was on the LEFT","loaded":true,"loading":true,"data":null,"buffer":{},"side":0,"confidence":0}},{"type":2,"typeName":"choice","block":3,"advisorId":2,"choice":[2,3],"answer":[0,0],"confidence":[69,91],"whichSide":0,"practice":false,"feedback":false,"warnings":[],"stimulusDrawTime":[184616.00000038743],"stimulusOffTime":[899.9999999068677,null],"fixationDrawTime":[184116.00000038743],"id":21,"dotDifference":4,"grid":{"dotCountL":204,"dotCountR":196,"gridWidth":20,"gridHeight":20,"dotWidth":2,"dotHeight":2,"paddingX":6,"paddingY":6,"gridL":[[1,1,0,0,1,1,0,0,0,0,1,1,0,0,0,0,1,0,1,1],[0,0,0,0,1,1,0,1,1,0,0,1,1,1,0,1,1,0,0,1],[1,0,1,1,0,0,1,0,0,0,0,1,0,1,0,0,0,1,1,0],[1,0,1,1,0,0,1,0,1,1,0,1,0,0,1,0,1,1,1,0],[0,1,0,1,1,1,0,0,1,1,1,0,1,1,0,0,1,1,1,1],[0,1,1,0,1,0,1,1,1,1,0,1,1,1,1,0,0,1,1,1],[1,0,0,0,0,1,1,0,0,1,0,1,0,0,0,0,1,1,0,1],[1,1,1,1,1,0,0,0,0,1,1,1,0,1,0,1,1,1,0,1],[1,1,1,1,0,0,0,0,0,0,1,0,1,1,1,1,0,0,1,0],[0,1,1,0,1,0,1,0,1,0,0,0,1,0,0,0,0,0,0,0],[0,1,1,1,1,1,0,0,1,0,0,0,1,0,1,1,0,1,0,1],[1,0,1,0,0,1,1,1,1,1,1,0,0,1,1,0,0,0,1,1],[0,1,0,1,0,0,1,0,1,1,1,0,0,0,1,0,1,1,1,0],[0,1,0,0,0,0,1,0,0,0,0,1,1,1,0,1,1,1,1,0],[1,1,0,0,0,0,1,1,1,0,1,1,0,0,0,0,1,1,1,1],[0,1,1,0,1,0,1,1,0,0,0,1,0,1,1,0,1,1,0,0],[0,1,0,0,0,1,0,0,0,0,1,0,1,0,0,0,1,1,1,1],[1,1,1,0,1,0,0,1,1,0,1,1,0,0,0,0,0,0,1,0],[1,0,1,1,0,1,1,0,1,1,0,0,0,0,1,0,1,0,1,0],[1,0,1,0,1,0,0,1,0,1,1,1,1,1,1,0,0,0,1,1]],"gridR":[[1,1,1,0,0,1,1,1,0,0,0,1,1,0,0,1,1,0,1,0],[1,0,0,1,0,1,1,1,1,1,0,0,1,0,0,0,1,1,1,1],[0,1,0,1,1,1,1,0,1,0,0,1,1,0,0,0,1,1,1,0],[0,1,1,0,1,1,0,0,0,1,0,0,0,0,0,1,0,1,1,0],[1,1,0,0,1,0,0,0,0,1,0,1,0,0,0,0,0,1,1,1],[0,1,0,0,0,0,0,1,0,0,1,1,1,0,1,1,0,0,1,1],[0,0,1,0,1,1,1,1,1,1,1,0,0,0,1,0,1,1,0,0],[1,0,0,1,0,1,1,0,1,0,1,1,1,1,0,1,1,0,0,0],[1,1,0,1,1,0,0,0,0,1,0,1,0,1,0,1,0,1,1,1],[0,0,0,0,0,0,0,0,0,0,1,0,0,1,0,0,0,0,0,1],[0,1,1,1,0,1,1,0,1,1,0,1,0,1,0,0,1,1,1,1],[1,0,1,0,0,1,1,0,1,0,0,0,0,0,1,0,0,0,0,1],[0,1,1,0,1,0,1,0,1,0,0,0,0,1,1,1,0,1,1,0],[0,0,1,0,1,1,1,1,0,0,1,1,0,1,1,0,0,1,1,1],[0,1,0,1,0,0,1,0,0,1,1,0,1,0,0,1,1,1,0,1],[1,1,1,1,1,1,1,1,1,1,0,0,1,1,1,0,1,0,0,0],[0,0,1,0,1,1,0,0,1,0,0,1,1,0,0,1,1,1,0,1],[1,0,0,0,0,1,0,0,1,0,1,1,0,0,1,1,0,0,0,1],[1,1,0,0,1,1,0,0,0,0,1,0,0,0,0,1,1,0,0,1],[0,1,1,1,0,0,0,0,1,1,1,0,0,0,1,0,1,0,1,0]],"displayWidth":172,"displayHeight":172,"spacing":100,"style":{"gridBorderColor":"#ffffff","gridBorderWidth":"3","dotColor":"#ffffff","dotLineWidth":"1"}},"pluginResponse":[{"startTime":183916.00000020117,"rt":2180.000000167638,"response":[{"id":0,"name":"Left","answer":69,"prompt":"Left","lastChangedTime":185626.0000001639},{"id":1,"name":"Right","answer":"50","prompt":"Right","lastChangedTime":null}],"stimulusOffTime":899.9999999068677,"trial_type":"canvas-sliders-response","trial_index":66,"time_elapsed":185877,"internal_node_id":"0.0-15.0-0.1"},{"choiceTime":1024.9999999068677,"choice":2,"totalTime":3027.0000002346933,"image":"http://localhost:8080/ExploringSocialMetacognition/assets/image/advisor3.png","adviceTime":2002.0000003278255,"trial_type":"jspsych-jas-present-advice-choice","trial_index":67,"time_elapsed":188905,"internal_node_id":"0.0-15.0-1.1"},{"startTime":189125,"rt":1080.0000000745058,"response":[{"id":0,"name":"Left","answer":91,"prompt":"Left","lastChangedTime":189758.00000037998},{"id":1,"name":"Right","answer":"50","prompt":"Right","lastChangedTime":null}],"trial_type":"canvas-sliders-response","trial_index":68,"time_elapsed":189985,"internal_node_id":"0.0-15.0-2.1"}],"confidenceCategory":2,"advisorAgrees":true,"advice":{"filePath":"assets/audio/voices/3/left_think.wav","string":"It was on the LEFT, I think","loaded":true,"loading":true,"data":null,"buffer":{},"side":0,"confidence":0}},{"type":2,"typeName":"choice","block":3,"advisorId":2,"choice":[2,3],"answer":[0,0],"confidence":[80,97],"whichSide":0,"practice":false,"feedback":false,"warnings":[],"stimulusDrawTime":[191107.0000003092],"stimulusOffTime":[901.0000000707805,null],"fixationDrawTime":[190607.0000003092],"id":22,"dotDifference":4,"grid":{"dotCountL":204,"dotCountR":196,"gridWidth":20,"gridHeight":20,"dotWidth":2,"dotHeight":2,"paddingX":6,"paddingY":6,"gridL":[[0,0,0,0,1,0,1,1,1,1,1,1,0,1,1,1,0,1,0,0],[0,1,1,0,0,0,0,0,0,1,1,1,1,1,0,0,0,1,0,1],[1,1,0,1,0,1,1,1,1,1,1,0,0,1,0,0,0,1,1,0],[0,0,1,0,0,1,1,0,0,1,0,1,0,1,0,0,1,1,0,1],[1,0,1,1,0,1,1,0,0,0,0,0,1,0,1,0,1,0,0,0],[0,1,0,0,1,0,1,0,1,1,1,0,1,1,1,1,1,1,0,1],[0,1,0,1,1,0,0,0,1,0,0,1,1,0,1,0,0,0,0,1],[0,1,1,0,1,1,1,1,0,0,1,1,1,1,1,1,0,0,1,1],[0,0,0,0,0,0,1,1,1,0,1,0,1,1,0,0,1,0,0,1],[1,1,0,0,0,1,0,0,0,0,1,0,1,1,1,1,0,0,0,0],[1,0,0,0,0,1,1,1,0,0,0,1,0,0,1,0,0,0,1,1],[1,0,0,0,1,1,0,1,0,1,1,1,0,0,0,0,1,0,1,0],[1,0,0,1,1,1,0,0,1,1,1,0,0,0,0,1,1,1,1,1],[0,1,0,1,1,1,1,0,1,1,1,1,0,0,0,0,1,1,1,1],[0,1,1,0,1,1,1,1,1,1,1,0,1,0,1,1,1,1,1,0],[1,1,1,0,1,1,1,0,1,1,1,0,1,0,0,1,1,0,1,0],[1,1,0,1,1,1,0,0,0,0,0,0,0,0,0,0,0,0,1,1],[1,1,0,0,1,0,0,1,1,0,0,0,1,1,0,0,0,1,0,1],[0,0,1,0,0,1,0,1,1,1,0,0,0,1,0,0,0,1,0,1],[1,0,0,1,1,0,0,1,0,1,0,1,0,0,1,1,1,1,0,0]],"gridR":[[0,1,0,0,1,1,0,1,0,1,1,0,0,1,1,1,0,1,0,1],[0,0,0,0,1,0,1,1,0,1,1,1,0,0,0,0,0,1,1,0],[1,0,1,1,0,0,0,0,0,0,0,1,1,1,0,0,1,1,1,1],[0,0,0,1,0,0,0,0,1,1,0,1,0,1,0,1,0,0,1,0],[1,0,1,1,1,0,1,1,1,1,0,1,1,1,0,1,0,0,1,0],[0,1,0,1,1,0,1,1,0,0,0,1,1,0,1,0,0,1,1,0],[1,1,1,0,0,0,0,1,0,0,0,0,0,1,0,1,0,1,0,0],[0,1,0,1,1,1,0,0,0,1,1,1,0,1,0,0,0,1,1,0],[1,0,1,0,0,1,1,0,1,0,0,1,0,0,1,1,1,0,1,0],[0,1,0,0,0,1,0,0,0,0,0,1,1,0,1,1,1,0,1,1],[0,0,0,0,1,1,0,1,0,1,0,0,1,1,1,0,1,1,0,0],[0,0,0,0,1,1,0,1,0,1,0,0,0,0,0,0,1,1,0,1],[0,1,1,1,1,0,1,0,0,1,1,1,0,0,1,0,1,1,0,1],[1,1,1,0,1,0,0,1,1,0,1,1,0,1,0,1,1,0,1,1],[1,0,0,0,1,0,0,0,1,1,1,1,0,1,1,0,0,0,0,0],[1,1,1,1,1,1,1,1,1,1,1,0,0,0,0,1,0,0,0,0],[0,1,0,0,1,1,0,1,1,1,0,1,0,0,1,1,1,0,1,1],[1,1,0,0,0,1,1,1,1,0,1,1,0,1,0,0,1,0,1,1],[0,1,0,0,1,0,0,0,1,1,0,0,0,1,1,1,1,0,1,1],[0,0,1,0,0,0,1,0,0,0,1,1,0,0,0,0,1,1,0,0]],"displayWidth":172,"displayHeight":172,"spacing":100,"style":{"gridBorderColor":"#ffffff","gridBorderWidth":"3","dotColor":"#ffffff","dotLineWidth":"1"}},"pluginResponse":[{"startTime":190407.00000012293,"rt":2194.0000001341105,"response":[{"id":0,"name":"Left","answer":80,"prompt":"Left","lastChangedTime":192103.0000001192},{"id":1,"name":"Right","answer":"50","prompt":"Right","lastChangedTime":null}],"stimulusOffTime":901.0000000707805,"trial_type":"canvas-sliders-response","trial_index":69,"time_elapsed":192382,"internal_node_id":"0.0-15.0-0.2"},{"choiceTime":1105.0000004470348,"choice":2,"totalTime":3107.000000309199,"image":"http://localhost:8080/ExploringSocialMetacognition/assets/image/advisor3.png","adviceTime":2001.9999998621643,"trial_type":"jspsych-jas-present-advice-choice","trial_index":70,"time_elapsed":195490,"internal_node_id":"0.0-15.0-1.2"},{"startTime":195709.99999996275,"rt":983.0000000074506,"response":[{"id":0,"name":"Left","answer":97,"prompt":"Left","lastChangedTime":196312.0000003837},{"id":1,"name":"Right","answer":"50","prompt":"Right","lastChangedTime":null}],"trial_type":"canvas-sliders-response","trial_index":71,"time_elapsed":196475,"internal_node_id":"0.0-15.0-2.2"}],"confidenceCategory":2,"advisorAgrees":true,"advice":{"filePath":"assets/audio/voices/3/think_left.wav","string":"I think it was on the LEFT","loaded":true,"loading":true,"data":null,"buffer":{},"side":0,"confidence":0}},{"type":2,"typeName":"choice","block":3,"advisorId":3,"choice":[2,3],"answer":[0,0],"confidence":[49,40],"whichSide":0,"practice":false,"feedback":false,"warnings":["Difficulty at maximum!"],"stimulusDrawTime":[197595.0000002049],"stimulusOffTime":[900.000000372529,null],"fixationDrawTime":[197095.0000002049],"id":23,"dotDifference":1,"grid":{"dotCountL":201,"dotCountR":199,"gridWidth":20,"gridHeight":20,"dotWidth":2,"dotHeight":2,"paddingX":6,"paddingY":6,"gridL":[[1,1,1,1,0,1,0,0,1,1,0,0,0,0,0,1,1,0,1,0],[1,0,0,1,0,1,1,0,0,0,1,1,0,1,1,0,0,0,0,0],[0,1,0,0,1,0,0,1,0,1,0,1,1,1,0,1,0,0,1,1],[0,0,0,0,1,1,0,0,1,0,0,0,0,1,1,1,0,1,0,1],[1,0,0,0,0,0,0,1,1,1,1,1,1,1,0,0,1,0,1,0],[1,0,1,1,1,0,0,1,1,1,1,1,0,1,0,0,0,1,1,0],[0,0,0,1,1,1,1,0,0,1,0,0,0,0,0,0,0,0,0,0],[0,0,0,1,1,0,1,0,1,0,0,1,0,1,1,1,0,1,0,1],[1,1,1,0,1,1,0,0,1,0,0,1,1,1,1,1,0,0,0,1],[0,1,0,1,1,1,0,1,0,0,1,1,0,1,0,1,1,0,1,1],[1,1,0,0,1,0,1,1,1,1,1,1,0,0,0,0,1,1,1,0],[0,1,1,1,1,1,0,1,1,0,0,0,0,1,1,1,1,0,1,0],[1,1,1,1,0,0,0,1,0,0,1,0,1,0,1,1,0,0,1,0],[0,0,1,1,0,0,0,0,0,0,0,1,0,1,1,1,1,1,0,0],[1,0,0,1,1,0,0,1,1,1,0,0,1,0,0,0,1,1,0,1],[0,1,0,1,1,1,1,0,1,1,0,0,0,1,0,0,1,0,1,0],[1,1,1,0,0,1,1,0,1,0,1,0,0,0,1,1,1,1,0,0],[1,0,1,0,1,0,0,0,0,1,1,0,0,1,1,0,1,1,1,0],[0,1,0,1,0,0,1,0,0,0,1,0,0,1,0,1,1,0,0,0],[1,1,0,1,0,1,1,1,1,1,0,1,1,0,1,0,0,1,1,1]],"gridR":[[0,1,0,1,1,0,0,0,0,1,1,0,0,0,1,0,1,0,1,0],[0,1,1,0,1,0,0,0,1,0,1,1,1,1,1,1,1,0,1,1],[0,0,0,1,1,1,1,0,0,1,1,0,1,1,1,1,1,0,0,0],[1,0,0,1,1,0,0,0,1,1,0,1,1,1,1,1,0,0,0,1],[1,0,1,0,0,1,0,0,1,1,1,1,0,0,1,1,0,0,1,0],[0,1,0,0,1,1,1,0,0,1,0,0,0,0,0,1,1,0,0,0],[0,1,1,0,0,1,1,0,1,0,1,0,0,1,0,1,0,0,0,0],[0,0,0,1,1,0,1,0,0,1,0,1,0,1,0,1,1,0,1,0],[1,0,0,0,0,1,0,1,1,1,1,1,1,1,1,1,1,1,0,0],[1,1,0,1,0,0,0,1,0,0,1,1,1,1,0,1,1,0,0,1],[0,1,1,1,1,0,1,1,0,1,0,1,0,1,0,1,1,0,0,1],[1,0,1,0,1,0,0,1,0,1,1,1,1,0,0,1,0,0,0,1],[0,0,1,0,0,0,1,0,0,1,1,1,0,0,0,1,0,1,0,1],[1,0,0,1,0,1,0,1,0,1,1,1,1,1,0,0,1,1,1,0],[1,0,1,1,0,1,1,1,1,1,0,1,0,0,0,0,0,1,1,0],[1,1,1,0,1,0,1,1,0,0,0,1,0,1,1,0,0,1,1,1],[1,1,0,0,0,0,1,1,0,0,0,1,0,0,0,0,0,0,0,0],[0,1,0,1,0,0,0,1,1,1,1,0,1,0,0,0,0,0,0,1],[0,1,0,0,1,1,0,0,0,0,1,1,1,0,1,0,0,1,0,1],[0,0,0,0,0,1,1,0,0,1,1,0,1,0,1,1,1,1,1,1]],"displayWidth":172,"displayHeight":172,"spacing":100,"style":{"gridBorderColor":"#ffffff","gridBorderWidth":"3","dotColor":"#ffffff","dotLineWidth":"1"}},"pluginResponse":[{"startTime":196895.00000001863,"rt":2652.0000002346933,"response":[{"id":0,"name":"Left","answer":49,"prompt":"Left","lastChangedTime":199126.0000001639},{"id":1,"name":"Right","answer":"50","prompt":"Right","lastChangedTime":null}],"stimulusOffTime":900.000000372529,"trial_type":"canvas-sliders-response","trial_index":72,"time_elapsed":199329,"internal_node_id":"0.0-15.0-0.3"},{"choiceTime":828.0000002123415,"choice":3,"totalTime":2831.0000002384186,"image":"http://localhost:8080/ExploringSocialMetacognition/assets/image/advisor1.png","adviceTime":2003.000000026077,"trial_type":"jspsych-jas-present-advice-choice","trial_index":73,"time_elapsed":202160,"internal_node_id":"0.0-15.0-1.3"},{"startTime":202380.0000003539,"rt":1223.9999999292195,"response":[{"id":0,"name":"Left","answer":40,"prompt":"Left","lastChangedTime":203030.99999995902},{"id":1,"name":"Right","answer":"50","prompt":"Right","lastChangedTime":null}],"trial_type":"canvas-sliders-response","trial_index":74,"time_elapsed":203385,"internal_node_id":"0.0-15.0-2.3"}],"confidenceCategory":1,"advisorAgrees":false,"advice":{"filePath":"assets/audio/voices/2/right_think.wav","string":"It was on the RIGHT, I think","loaded":true,"loading":true,"data":null,"buffer":{},"side":1,"confidence":0}},{"type":1,"typeName":"force","block":3,"advisorId":3,"choice":[],"answer":[0,0],"confidence":[79,71],"whichSide":1,"practice":false,"feedback":false,"warnings":[],"stimulusDrawTime":[204505.0000003539],"stimulusOffTime":[899.9999999068677,null],"fixationDrawTime":[204006.00000005215],"id":24,"dotDifference":1,"grid":{"dotCountL":199,"dotCountR":201,"gridWidth":20,"gridHeight":20,"dotWidth":2,"dotHeight":2,"paddingX":6,"paddingY":6,"gridL":[[1,1,1,1,1,1,1,0,0,0,0,1,1,1,0,1,1,0,1,1],[1,1,0,1,0,0,0,1,0,1,1,1,0,0,0,1,1,1,0,0],[0,0,1,1,0,1,0,1,0,0,0,0,1,0,0,1,1,1,1,1],[1,1,0,0,0,1,1,0,1,1,0,0,0,1,1,1,0,1,1,1],[1,0,0,1,1,0,1,1,0,1,1,0,1,1,1,0,1,1,1,0],[1,1,0,0,0,0,1,0,0,0,0,0,0,0,0,0,1,1,0,0],[0,0,0,1,0,0,1,1,0,0,1,1,0,1,1,1,0,0,1,0],[0,1,1,0,0,0,0,1,0,1,0,1,1,1,0,0,1,0,1,1],[0,0,1,1,0,0,1,0,1,1,1,0,1,1,1,0,0,1,1,1],[0,0,0,1,0,0,1,1,0,1,0,1,0,0,1,0,0,1,0,1],[1,0,0,1,0,1,0,0,0,1,0,1,0,0,1,1,1,0,1,0],[1,1,1,1,0,1,0,0,0,1,0,1,1,1,1,1,0,1,0,0],[1,0,0,1,0,1,1,0,0,1,0,0,0,0,0,0,0,0,1,1],[1,0,0,0,1,1,0,1,0,1,0,0,0,0,0,0,0,0,1,0],[1,0,1,1,1,0,0,1,0,1,0,0,1,1,0,1,1,1,1,0],[1,1,0,0,1,1,1,0,0,0,0,0,1,0,0,0,1,0,0,0],[0,1,1,1,1,1,1,0,1,1,0,1,1,0,0,1,1,1,1,1],[1,1,1,0,0,0,1,0,0,0,0,1,1,1,0,1,1,1,0,1],[1,1,0,0,1,1,1,0,0,0,0,0,0,1,0,0,1,0,0,0],[1,1,0,0,1,1,0,0,1,0,0,0,1,1,0,0,1,1,1,0]],"gridR":[[1,0,1,1,0,1,0,0,1,1,0,0,1,0,1,1,1,0,0,0],[1,1,0,1,1,0,1,1,1,0,0,1,1,1,1,0,1,0,0,0],[1,0,0,0,0,0,1,1,1,0,1,1,0,1,0,1,1,0,1,1],[1,1,1,1,0,1,0,0,1,0,0,0,1,0,1,1,1,0,1,1],[0,1,0,0,1,0,1,1,0,1,1,1,0,0,0,1,1,1,1,1],[0,1,1,1,1,1,0,0,1,1,0,1,0,1,0,1,0,0,0,1],[1,0,0,1,0,0,1,0,0,1,0,0,0,0,0,1,1,1,1,0],[1,0,0,1,1,0,0,1,0,0,0,1,1,1,0,1,0,0,1,0],[0,1,0,0,0,0,0,0,1,0,0,0,1,0,0,1,1,0,1,0],[1,1,0,1,1,1,1,0,1,0,1,1,0,0,0,0,1,1,1,1],[0,0,1,1,0,0,1,1,0,1,1,1,1,0,1,1,1,1,0,1],[1,0,1,0,1,1,0,0,1,0,0,0,1,1,1,1,0,1,0,1],[0,1,0,0,1,0,1,0,1,0,0,1,0,0,0,0,0,0,0,0],[1,0,1,0,0,1,0,0,1,0,1,1,0,1,1,0,0,1,1,0],[0,0,1,0,1,0,1,1,1,0,0,0,0,1,1,0,1,0,1,0],[1,0,1,0,0,1,0,0,1,0,1,1,0,0,1,0,1,1,1,1],[0,1,1,1,1,0,0,1,1,1,1,0,0,0,1,0,0,1,1,0],[1,1,0,0,1,1,1,0,0,0,1,1,1,0,0,0,0,0,0,0],[0,0,1,0,0,0,0,1,1,1,1,1,0,0,0,0,0,0,0,1],[1,1,0,1,1,1,0,0,1,0,0,1,1,1,1,1,1,0,0,0]],"displayWidth":172,"displayHeight":172,"spacing":100,"style":{"gridBorderColor":"#ffffff","gridBorderWidth":"3","dotColor":"#ffffff","dotLineWidth":"1"}},"pluginResponse":[{"startTime":203805.00000016764,"rt":2012.0000001043081,"response":[{"id":0,"name":"Left","answer":79,"prompt":"Left","lastChangedTime":205380.0000003539},{"id":1,"name":"Right","answer":"50","prompt":"Right","lastChangedTime":null}],"stimulusOffTime":899.9999999068677,"trial_type":"canvas-sliders-response","trial_index":75,"time_elapsed":205598,"internal_node_id":"0.0-15.0-0.4"},{"choiceTime":0,"choice":3,"totalTime":2001.9999998621643,"image":"http://localhost:8080/ExploringSocialMetacognition/assets/image/advisor1.png","adviceTime":2001.9999998621643,"trial_type":"jspsych-jas-present-advice-choice","trial_index":76,"time_elapsed":207599,"internal_node_id":"0.0-15.0-1.4"},{"startTime":207820.99999999627,"rt":1354.9999999813735,"response":[{"id":0,"name":"Left","answer":71,"prompt":"Left","lastChangedTime":208559.00000035763},{"id":1,"name":"Right","answer":"50","prompt":"Right","lastChangedTime":null}],"trial_type":"canvas-sliders-response","trial_index":77,"time_elapsed":208956,"internal_node_id":"0.0-15.0-2.4"}],"confidenceCategory":2,"advisorAgrees":true,"advice":{"filePath":"assets/audio/voices/2/right_think.wav","string":"It was on the RIGHT, I think","loaded":true,"loading":true,"data":null,"buffer":{},"side":1,"confidence":0}},{"type":1,"typeName":"force","block":3,"advisorId":3,"choice":[],"answer":[0,0],"confidence":[100,100],"whichSide":0,"practice":false,"feedback":false,"warnings":[],"stimulusDrawTime":[210077.00000004843],"stimulusOffTime":[899.9999999068677,null],"fixationDrawTime":[209577.00000004843],"id":25,"dotDifference":4,"grid":{"dotCountL":204,"dotCountR":196,"gridWidth":20,"gridHeight":20,"dotWidth":2,"dotHeight":2,"paddingX":6,"paddingY":6,"gridL":[[1,0,0,1,0,0,1,0,1,1,0,0,1,1,1,1,0,0,1,1],[1,0,1,0,1,1,0,0,1,1,1,1,1,0,1,0,1,0,1,0],[1,1,0,1,1,1,1,1,0,1,0,1,1,0,1,0,0,1,1,0],[1,0,1,0,1,1,1,0,1,1,0,1,1,0,0,0,0,0,0,1],[1,0,1,0,1,1,1,1,0,1,0,1,1,0,0,1,0,0,0,1],[0,0,1,1,0,0,1,0,1,0,0,1,0,0,1,1,1,0,0,1],[1,1,0,0,1,1,0,0,1,0,0,0,1,0,0,0,1,0,1,1],[1,1,0,1,1,0,1,0,1,0,0,1,1,0,1,1,1,0,0,0],[0,0,1,1,0,1,1,0,0,1,0,1,1,1,0,0,0,0,1,0],[0,0,1,0,1,1,1,0,1,0,0,0,0,0,0,0,0,1,0,0],[1,1,1,0,0,0,0,0,0,1,1,0,1,1,1,0,1,1,1,0],[0,0,0,0,0,1,0,1,0,1,1,0,1,1,0,1,0,1,1,1],[0,1,1,1,0,1,0,1,1,0,1,0,1,0,1,0,0,0,0,1],[0,1,0,0,1,1,1,1,1,0,0,1,1,0,1,1,1,0,0,0],[0,1,1,1,1,1,0,1,0,1,1,0,0,1,0,1,1,0,1,1],[0,0,1,1,1,0,0,1,0,1,1,1,0,1,1,1,1,0,1,0],[0,0,0,0,1,1,1,0,1,0,0,0,0,0,1,1,1,0,1,0],[1,0,0,1,1,0,0,0,1,1,1,0,1,1,0,1,0,1,0,1],[1,0,1,0,0,1,0,0,1,1,1,0,1,1,1,0,0,0,0,0],[1,1,0,0,0,1,0,0,1,1,1,0,0,0,0,0,1,0,1,0]],"gridR":[[1,0,1,1,1,0,1,0,0,1,1,0,0,0,1,0,0,1,1,1],[1,1,0,1,1,1,1,0,1,0,1,0,1,1,0,0,1,0,0,0],[0,0,0,1,1,0,0,1,1,1,0,1,0,0,0,0,0,1,1,0],[0,0,0,1,0,1,1,1,0,1,0,1,0,0,1,1,1,1,0,1],[0,0,0,1,0,0,0,0,1,1,1,0,0,0,1,1,0,1,0,0],[1,0,1,1,0,0,0,1,0,1,0,0,1,1,0,0,1,1,0,0],[1,1,1,1,0,1,1,1,0,1,0,0,1,1,0,1,1,0,1,1],[1,0,0,0,0,1,1,0,0,0,0,0,0,0,1,1,0,0,1,0],[0,1,0,0,0,1,0,1,0,1,0,1,1,1,0,1,1,1,0,0],[0,0,0,0,0,1,0,0,1,1,1,0,1,1,0,1,1,1,1,1],[1,0,0,1,0,1,0,0,0,1,1,1,0,1,0,0,1,1,0,0],[1,1,0,0,0,0,1,1,0,1,1,1,0,1,1,0,0,0,1,1],[0,0,1,1,0,0,0,0,0,1,1,1,0,1,0,0,1,0,0,0],[0,0,0,1,0,1,1,0,0,0,0,1,0,1,0,1,1,0,0,1],[1,1,0,1,1,1,1,0,1,0,1,1,0,1,1,0,0,1,1,0],[1,0,0,1,1,0,0,0,0,1,1,1,1,0,1,1,1,1,1,1],[0,1,1,0,1,0,1,1,0,1,1,0,1,0,0,0,1,0,0,0],[1,0,0,0,0,1,0,0,0,0,0,1,0,0,0,0,1,1,0,0],[0,0,1,1,0,1,1,0,0,1,1,1,1,0,0,1,1,1,0,1],[0,1,0,0,1,1,1,1,0,0,1,0,1,0,1,0,1,0,1,1]],"displayWidth":172,"displayHeight":172,"spacing":100,"style":{"gridBorderColor":"#ffffff","gridBorderWidth":"3","dotColor":"#ffffff","dotLineWidth":"1"}},"pluginResponse":[{"startTime":209377.00000032783,"rt":2256.9999997504056,"response":[{"id":0,"name":"Left","answer":100,"prompt":"Left","lastChangedTime":210965.00000031665},{"id":1,"name":"Right","answer":"50","prompt":"Right","lastChangedTime":null}],"stimulusOffTime":899.9999999068677,"trial_type":"canvas-sliders-response","trial_index":78,"time_elapsed":211416,"internal_node_id":"0.0-15.0-0.5"},{"choiceTime":0,"choice":3,"totalTime":2003.000000026077,"image":"http://localhost:8080/ExploringSocialMetacognition/assets/image/advisor1.png","adviceTime":2003.000000026077,"trial_type":"jspsych-jas-present-advice-choice","trial_index":79,"time_elapsed":213419,"internal_node_id":"0.0-15.0-1.5"},{"startTime":213638.99999996647,"rt":1370.0000001117587,"response":[{"id":0,"name":"Left","answer":100,"prompt":"Left","lastChangedTime":214438.00000008196},{"id":1,"name":"Right","answer":"50","prompt":"Right","lastChangedTime":null}],"trial_type":"canvas-sliders-response","trial_index":80,"time_elapsed":214791,"internal_node_id":"0.0-15.0-2.5"}],"confidenceCategory":2,"advisorAgrees":true,"advice":{"filePath":"assets/audio/voices/2/left_think.wav","string":"It was on the LEFT, I think","loaded":true,"loading":true,"data":null,"buffer":{},"side":0,"confidence":0}},{"type":1,"typeName":"force","block":3,"advisorId":2,"choice":[],"answer":[0,0],"confidence":[81,100],"whichSide":0,"practice":false,"feedback":false,"warnings":[],"stimulusDrawTime":[215912.00000001118],"stimulusOffTime":[901.0000000707805,null],"fixationDrawTime":[215412.00000001118],"id":26,"dotDifference":4,"grid":{"dotCountL":204,"dotCountR":196,"gridWidth":20,"gridHeight":20,"dotWidth":2,"dotHeight":2,"paddingX":6,"paddingY":6,"gridL":[[1,0,1,0,0,0,0,0,1,0,0,0,0,1,1,0,1,0,1,0],[1,0,0,0,1,0,1,1,0,0,0,0,0,0,0,0,1,0,1,1],[0,0,1,1,0,1,0,1,0,1,0,0,1,0,1,1,0,0,0,1],[0,1,0,0,1,1,1,1,0,0,0,0,1,0,1,1,0,1,0,0],[1,0,1,1,0,1,0,0,0,0,1,1,1,1,0,1,1,0,0,0],[0,1,1,1,0,1,0,0,0,1,1,1,0,0,1,0,1,0,1,1],[1,1,0,0,0,0,1,1,0,1,0,1,1,1,1,0,1,1,0,0],[0,1,1,1,1,1,1,0,1,0,0,0,1,0,1,1,0,1,0,0],[1,1,0,1,1,1,0,1,1,0,0,1,1,1,0,0,1,1,0,0],[1,0,0,1,1,1,0,1,1,1,1,0,1,1,1,0,0,1,0,0],[1,1,0,0,1,1,1,1,0,0,1,1,1,1,0,0,0,0,1,1],[1,1,1,0,0,0,1,1,0,0,0,1,0,1,1,1,0,1,1,0],[0,1,0,1,1,1,0,0,0,0,1,0,0,0,1,1,0,1,1,0],[1,0,1,1,0,0,0,0,0,1,1,0,1,1,0,1,0,0,1,0],[1,1,1,0,0,1,0,1,1,0,0,1,1,0,0,1,0,1,1,0],[0,1,1,1,1,1,0,0,1,0,1,0,1,0,1,0,1,1,1,0],[1,0,1,0,1,0,1,1,0,1,1,1,0,0,1,1,0,1,1,0],[1,1,0,0,0,0,1,0,1,1,0,0,1,1,0,0,0,0,0,1],[1,0,1,0,1,1,0,1,1,1,0,1,0,0,0,0,0,1,1,0],[1,0,1,0,1,0,1,1,0,1,1,1,0,1,1,0,0,0,0,1]],"gridR":[[0,1,0,1,0,1,1,1,1,0,1,0,1,0,0,0,0,1,1,0],[0,0,1,1,0,1,1,1,1,0,1,1,1,0,0,1,1,1,0,1],[0,1,1,0,1,1,1,0,0,1,0,0,0,1,0,1,1,1,1,0],[1,1,0,1,0,0,1,0,0,0,0,1,1,0,0,1,0,0,0,0],[1,0,1,0,1,1,1,0,0,1,1,1,1,0,0,1,0,0,0,0],[0,0,0,0,1,1,1,1,1,0,1,0,0,0,0,1,1,1,1,0],[1,1,0,1,0,0,1,0,1,0,1,1,1,0,1,0,1,0,0,1],[0,0,0,1,1,1,1,0,1,1,1,1,1,1,1,1,1,0,1,0],[0,1,1,1,1,1,0,1,1,1,1,1,0,0,1,0,1,1,0,1],[1,1,0,0,1,1,1,0,0,0,0,1,1,0,0,0,0,1,0,0],[0,0,1,1,1,0,0,1,0,1,1,1,0,0,0,0,1,0,0,1],[1,0,0,1,0,0,0,1,1,0,1,1,0,0,0,0,0,0,1,0],[0,1,1,0,1,0,1,1,1,1,1,0,0,0,0,1,1,1,0,1],[0,0,0,0,0,0,0,0,0,0,0,0,1,1,0,1,1,0,1,1],[1,1,0,0,0,1,0,1,1,1,0,0,0,0,0,1,0,1,1,0],[0,0,0,1,1,1,1,1,0,0,0,0,1,1,1,0,0,0,0,0],[0,0,0,1,1,1,0,0,1,1,1,1,1,0,0,1,0,0,1,0],[1,1,0,0,0,1,0,0,0,0,1,0,0,0,0,1,0,1,0,1],[1,1,1,0,1,1,0,1,1,0,1,0,0,1,0,1,1,1,0,0],[1,0,1,0,0,0,0,0,1,1,0,0,1,1,1,1,0,0,0,0]],"displayWidth":172,"displayHeight":172,"spacing":100,"style":{"gridBorderColor":"#ffffff","gridBorderWidth":"3","dotColor":"#ffffff","dotLineWidth":"1"}},"pluginResponse":[{"startTime":215212.00000029057,"rt":2584.999999962747,"response":[{"id":0,"name":"Left","answer":81,"prompt":"Left","lastChangedTime":217358.00000000745},{"id":1,"name":"Right","answer":"50","prompt":"Right","lastChangedTime":null}],"stimulusOffTime":901.0000000707805,"trial_type":"canvas-sliders-response","trial_index":81,"time_elapsed":217579,"internal_node_id":"0.0-15.0-0.6"},{"choiceTime":0,"choice":2,"totalTime":2002.0000003278255,"image":"http://localhost:8080/ExploringSocialMetacognition/assets/image/advisor3.png","adviceTime":2002.0000003278255,"trial_type":"jspsych-jas-present-advice-choice","trial_index":82,"time_elapsed":219582,"internal_node_id":"0.0-15.0-1.6"},{"startTime":219800.99999997765,"rt":2636.0000004060566,"response":[{"id":0,"name":"Left","answer":100,"prompt":"Left","lastChangedTime":221809.00000035763},{"id":1,"name":"Right","answer":"50","prompt":"Right","lastChangedTime":null}],"trial_type":"canvas-sliders-response","trial_index":83,"time_elapsed":222218,"internal_node_id":"0.0-15.0-2.6"}],"confidenceCategory":2,"advisorAgrees":true,"advice":{"filePath":"assets/audio/voices/3/think_left.wav","string":"I think it was on the LEFT","loaded":true,"loading":true,"data":null,"buffer":{},"side":0,"confidence":0}},{"type":2,"typeName":"choice","block":3,"advisorId":2,"choice":[3,2],"answer":[0,0],"confidence":[30,0],"whichSide":0,"practice":false,"feedback":false,"warnings":["Difficulty at maximum!"],"stimulusDrawTime":[223339.00000015274],"stimulusOffTime":[900.000000372529,null],"fixationDrawTime":[222840.00000031665],"id":27,"dotDifference":1,"grid":{"dotCountL":201,"dotCountR":199,"gridWidth":20,"gridHeight":20,"dotWidth":2,"dotHeight":2,"paddingX":6,"paddingY":6,"gridL":[[0,0,0,0,1,0,0,0,0,1,1,1,0,0,0,1,0,0,1,1],[0,0,1,1,1,1,1,1,0,1,1,0,0,0,1,1,0,1,1,0],[1,0,0,1,0,1,1,0,1,1,0,0,0,0,1,0,1,1,0,0],[1,0,1,1,0,0,1,0,0,0,1,0,1,1,1,1,0,0,1,1],[0,0,1,0,1,1,0,1,0,1,1,1,0,0,0,0,1,0,1,0],[1,1,1,0,1,1,1,1,0,0,1,1,1,0,1,0,0,1,1,1],[1,0,1,1,0,0,1,0,0,0,1,0,0,0,0,1,1,1,0,0],[0,1,1,0,0,0,0,0,1,1,1,0,1,0,1,1,0,1,1,0],[0,0,1,0,0,1,0,1,0,1,0,1,0,1,0,1,1,0,1,0],[0,0,1,1,0,1,1,0,1,1,1,1,0,0,0,0,1,1,0,1],[1,0,0,0,1,0,0,0,0,1,0,0,1,1,0,1,1,0,1,0],[0,1,1,0,1,0,0,0,1,0,0,1,1,0,1,0,1,0,1,1],[0,0,1,0,1,0,0,0,1,1,0,1,1,1,1,0,1,1,0,1],[0,1,1,0,1,1,0,1,0,1,1,0,0,0,0,0,0,0,0,0],[0,0,0,1,1,1,1,1,0,1,0,1,1,1,0,1,0,0,1,0],[0,0,1,1,1,0,1,0,1,1,0,1,1,0,0,1,1,0,0,1],[0,0,0,1,1,1,1,1,1,0,1,1,0,0,1,1,0,0,1,1],[0,1,0,0,0,0,0,1,1,0,1,0,0,0,0,1,1,1,0,1],[1,1,1,1,1,0,1,1,0,0,0,0,1,0,1,1,0,1,1,1],[1,1,0,0,0,0,0,1,0,1,1,0,0,0,1,1,0,1,1,1]],"gridR":[[1,1,1,0,1,0,1,0,1,1,0,0,0,0,1,1,0,1,1,0],[1,0,0,0,0,1,1,1,0,0,0,1,1,1,1,1,1,1,1,1],[0,1,1,0,0,0,1,0,1,0,0,1,0,1,1,1,1,1,0,1],[0,0,1,0,0,0,0,1,1,1,1,1,1,1,1,1,1,1,1,0],[1,0,0,1,1,0,0,1,0,0,0,1,1,1,1,1,0,0,1,1],[1,1,0,0,0,1,1,0,0,1,0,0,1,0,1,1,1,0,1,0],[1,0,1,0,1,1,0,1,0,0,1,1,1,1,1,1,0,1,0,0],[0,0,0,0,1,0,1,0,0,0,0,0,1,1,1,1,1,0,1,0],[1,0,1,1,0,1,0,1,0,1,0,0,1,0,0,0,1,0,1,0],[1,1,0,1,0,0,0,0,0,1,0,1,1,1,1,1,0,0,1,1],[1,0,1,0,1,0,1,1,0,1,0,0,1,0,0,0,0,0,0,0],[0,1,0,0,0,1,0,0,0,1,0,0,1,0,1,0,0,1,0,1],[1,1,0,1,1,0,1,1,0,0,0,0,1,0,0,0,0,0,0,1],[0,0,0,0,1,1,0,0,1,0,1,0,0,1,0,0,1,1,0,1],[1,0,1,1,0,1,0,0,1,1,0,1,1,0,0,0,0,0,1,1],[1,0,1,1,0,0,1,0,1,1,1,1,1,0,0,1,0,1,1,0],[1,1,1,1,1,1,1,0,0,0,0,0,0,0,0,0,0,0,0,1],[0,1,1,1,0,1,0,0,1,1,1,0,0,1,0,0,1,1,1,0],[1,0,0,1,0,0,0,1,0,1,0,1,1,0,1,0,1,1,0,0],[0,0,0,1,1,1,0,0,0,1,1,0,1,1,1,1,0,1,0,0]],"displayWidth":172,"displayHeight":172,"spacing":100,"style":{"gridBorderColor":"#ffffff","gridBorderWidth":"3","dotColor":"#ffffff","dotLineWidth":"1"}},"pluginResponse":[{"startTime":222638.99999996647,"rt":3518.000000156462,"response":[{"id":0,"name":"Left","answer":30,"prompt":"Left","lastChangedTime":225666.00000020117},{"id":1,"name":"Right","answer":"50","prompt":"Right","lastChangedTime":null}],"stimulusOffTime":900.000000372529,"trial_type":"canvas-sliders-response","trial_index":84,"time_elapsed":225939,"internal_node_id":"0.0-15.0-0.7"},{"choiceTime":1203.999999910593,"choice":2,"totalTime":3205.9999997727573,"image":"http://localhost:8080/ExploringSocialMetacognition/assets/image/advisor3.png","adviceTime":2001.9999998621643,"trial_type":"jspsych-jas-present-advice-choice","trial_index":85,"time_elapsed":229145,"internal_node_id":"0.0-15.0-1.7"},{"startTime":229365.00000022352,"rt":1333.9999997988343,"response":[{"id":0,"name":"Left","answer":0,"prompt":"Left","lastChangedTime":230153.0000003986},{"id":1,"name":"Right","answer":"50","prompt":"Right","lastChangedTime":null}],"trial_type":"canvas-sliders-response","trial_index":86,"time_elapsed":230482,"internal_node_id":"0.0-15.0-2.7"}],"confidenceCategory":0,"advisorAgrees":false,"advice":{"filePath":"assets/audio/voices/3/think_right.wav","string":"I think it was on the RIGHT","loaded":true,"loading":true,"data":null,"buffer":{},"side":1,"confidence":0}},{"type":1,"typeName":"force","block":3,"advisorId":3,"choice":[],"answer":[0,0],"confidence":[75,92],"whichSide":1,"practice":false,"feedback":false,"warnings":[],"stimulusDrawTime":[231604.00000028312],"stimulusOffTime":[899.9999999068677,null],"fixationDrawTime":[231103.0000001192],"id":28,"dotDifference":1,"grid":{"dotCountL":199,"dotCountR":201,"gridWidth":20,"gridHeight":20,"dotWidth":2,"dotHeight":2,"paddingX":6,"paddingY":6,"gridL":[[1,1,0,0,0,1,0,0,1,1,0,1,0,1,1,1,0,1,0,0],[0,1,0,0,0,0,0,1,1,0,1,1,1,0,0,1,0,0,0,0],[1,1,0,0,1,1,0,0,0,1,1,0,0,0,1,0,0,1,0,1],[1,1,0,1,1,0,1,1,0,0,0,1,1,1,0,0,1,0,0,1],[0,1,0,1,0,0,0,1,1,1,1,1,1,0,1,1,1,0,0,1],[1